,subjID,experimentName,versionName,sequenceName,url,selected_row,windowWidth,windowHeight,screenWidth,screenHeight,startDate,startTime,trial,stimulus,duration,actual_depth,depth_estimate,trial_RT,log_sceneDuration,unitSelection,experimentTime,totalTime,age
197,243745,DepthScenes,duration_manipulation,aw,http://54.165.233.113/DepthDuration/depth_duration_Mturk/DepthDuration_HTML.html#92,92,1024,768,1024,768,2-19-2021,10-10-37,6,depth_duration_stimuli/002305_2014-06-28_19-56-50_260595134347_rgbf000102-resize_7/002305_2014-06-28_19-56-50_260595134347_rgbf000102-resize_7-target.png,500,4.8725,1.7650969529085871,4057,500,feet,631587,777883,58.0
200,243745,DepthScenes,duration_manipulation,aw,http://54.165.233.113/DepthDuration/depth_duration_Mturk/DepthDuration_HTML.html#92,92,1024,768,1024,768,2-19-2021,10-10-37,9,depth_duration_stimuli/001167_2014-06-17_15-38-07_260595134347_rgbf000108-resize_0/001167_2014-06-17_15-38-07_260595134347_rgbf000108-resize_0-target.png,500,1.8505,0.3922437673130193,2346,500,feet,631587,777883,58.0
203,243745,DepthScenes,duration_manipulation,aw,http://54.165.233.113/DepthDuration/depth_duration_Mturk/DepthDuration_HTML.html#92,92,1024,768,1024,768,2-19-2021,10-10-37,12,depth_duration_stimuli/000109_2014-05-14_23-41-52_260595134347_rgbf000035-resize_9/000109_2014-05-14_23-41-52_260595134347_rgbf000035-resize_9-target.png,500,1.3545,0.3922437673130193,2217,501,feet,631587,777883,58.0
214,243745,DepthScenes,duration_manipulation,aw,http://54.165.233.113/DepthDuration/depth_duration_Mturk/DepthDuration_HTML.html#92,92,1024,768,1024,768,2-19-2021,10-10-37,23,depth_duration_stimuli/002758_2014-06-22_19-11-20_094959634447_rgbf000128-resize_1/002758_2014-06-22_19-11-20_094959634447_rgbf000128-resize_1-target.png,500,2.555,0.7844875346260386,2505,500,feet,631587,777883,58.0
215,243745,DepthScenes,duration_manipulation,aw,http://54.165.233.113/DepthDuration/depth_duration_Mturk/DepthDuration_HTML.html#92,92,1024,768,1024,768,2-19-2021,10-10-37,24,depth_duration_stimuli/002748_2014-06-22_19-07-22_094959634447_rgbf000078-resize_1/002748_2014-06-22_19-07-22_094959634447_rgbf000078-resize_1-target.png,500,4.6705,1.4709141274238224,2601,500,feet,631587,777883,58.0
217,243745,DepthScenes,duration_manipulation,aw,http://54.165.233.113/DepthDuration/depth_duration_Mturk/DepthDuration_HTML.html#92,92,1024,768,1024,768,2-19-2021,10-10-37,26,depth_duration_stimuli/001197_2014-06-17_16-01-50_260595134347_rgbf000103-resize_4/001197_2014-06-17_16-01-50_260595134347_rgbf000103-resize_4-target.png,500,3.4025,1.176731301939058,2948,508,feet,631587,777883,58.0
225,243745,DepthScenes,duration_manipulation,aw,http://54.165.233.113/DepthDuration/depth_duration_Mturk/DepthDuration_HTML.html#92,92,1024,768,1024,768,2-19-2021,10-10-37,34,depth_duration_stimuli/000635_2014-06-08_16-38-42_260595134347_rgbf000106-resize_1/000635_2014-06-08_16-38-42_260595134347_rgbf000106-resize_1-target.png,500,2.074,1.176731301939058,2826,500,feet,631587,777883,58.0
228,243745,DepthScenes,duration_manipulation,aw,http://54.165.233.113/DepthDuration/depth_duration_Mturk/DepthDuration_HTML.html#92,92,1024,768,1024,768,2-19-2021,10-10-37,37,depth_duration_stimuli/000906_2014-06-08_13-35-43_260595134347_rgbf000155-resize_1/000906_2014-06-08_13-35-43_260595134347_rgbf000155-resize_1-target.png,500,2.8489999999999998,1.3728531855955675,2184,499,feet,631587,777883,58.0
229,243745,DepthScenes,duration_manipulation,aw,http://54.165.233.113/DepthDuration/depth_duration_Mturk/DepthDuration_HTML.html#92,92,1024,768,1024,768,2-19-2021,10-10-37,38,depth_duration_stimuli/001516_2014-06-20_16-25-09_260595134347_rgbf000076-resize_2/001516_2014-06-20_16-25-09_260595134347_rgbf000076-resize_2-target.png,500,1.7445,0.7844875346260386,1929,500,feet,631587,777883,58.0
233,243745,DepthScenes,duration_manipulation,aw,http://54.165.233.113/DepthDuration/depth_duration_Mturk/DepthDuration_HTML.html#92,92,1024,768,1024,768,2-19-2021,10-10-37,42,depth_duration_stimuli/002995_2014-06-15_12-31-26_094959634447_rgbf000150-resize_1/002995_2014-06-15_12-31-26_094959634447_rgbf000150-resize_1-target.png,500,3.8360000000000003,1.9612188365650964,2315,501,feet,631587,777883,58.0
238,243745,DepthScenes,duration_manipulation,aw,http://54.165.233.113/DepthDuration/depth_duration_Mturk/DepthDuration_HTML.html#92,92,1024,768,1024,768,2-19-2021,10-10-37,47,depth_duration_stimuli/001094_2014-06-15_17-36-00_260595134347_rgbf000205-resize_0/001094_2014-06-15_17-36-00_260595134347_rgbf000205-resize_0-target.png,500,4.2175,1.5689750692520772,5450,501,feet,631587,777883,58.0
248,243745,DepthScenes,duration_manipulation,aw,http://54.165.233.113/DepthDuration/depth_duration_Mturk/DepthDuration_HTML.html#92,92,1024,768,1024,768,2-19-2021,10-10-37,57,depth_duration_stimuli/003338_2014-05-20_11-01-23_094959634447_rgbf000051-resize_6/003338_2014-05-20_11-01-23_094959634447_rgbf000051-resize_6-target.png,500,1.693,0.588365650969529,2521,499,feet,631587,777883,58.0
250,243745,DepthScenes,duration_manipulation,aw,http://54.165.233.113/DepthDuration/depth_duration_Mturk/DepthDuration_HTML.html#92,92,1024,768,1024,768,2-19-2021,10-10-37,59,depth_duration_stimuli/002414_2014-06-28_20-24-58_260595134347_rgbf000067-resize_4/002414_2014-06-28_20-24-58_260595134347_rgbf000067-resize_4-target.png,500,4.363,1.0786703601108032,2650,501,feet,631587,777883,58.0
256,243745,DepthScenes,duration_manipulation,aw,http://54.165.233.113/DepthDuration/depth_duration_Mturk/DepthDuration_HTML.html#92,92,1024,768,1024,768,2-19-2021,10-10-37,65,depth_duration_stimuli/000739_2014-06-08_18-45-58_260595134347_rgbf000068-resize_1/000739_2014-06-08_18-45-58_260595134347_rgbf000068-resize_1-target.png,500,3.534,0.8825484764542936,2890,500,feet,631587,777883,58.0
269,243745,DepthScenes,duration_manipulation,aw,http://54.165.233.113/DepthDuration/depth_duration_Mturk/DepthDuration_HTML.html#92,92,1024,768,1024,768,2-19-2021,10-10-37,78,depth_duration_stimuli/002949_2014-06-26_15-57-42_094959634447_rgbf000079-resize_1/002949_2014-06-26_15-57-42_094959634447_rgbf000079-resize_1-target.png,500,1.8915,0.4903047091412741,3482,500,feet,631587,777883,58.0
270,243745,DepthScenes,duration_manipulation,aw,http://54.165.233.113/DepthDuration/depth_duration_Mturk/DepthDuration_HTML.html#92,92,1024,768,1024,768,2-19-2021,10-10-37,79,depth_duration_stimuli/001158_2014-06-17_15-32-16_260595134347_rgbf000138-resize_2/001158_2014-06-17_15-32-16_260595134347_rgbf000138-resize_2-target.png,500,4.5315,1.0786703601108032,3273,499,feet,631587,777883,58.0
271,243745,DepthScenes,duration_manipulation,aw,http://54.165.233.113/DepthDuration/depth_duration_Mturk/DepthDuration_HTML.html#92,92,1024,768,1024,768,2-19-2021,10-10-37,80,depth_duration_stimuli/000788_2014-06-08_22-34-36_260595134347_rgbf000131-resize_1/000788_2014-06-08_22-34-36_260595134347_rgbf000131-resize_1-target.png,500,3.359,0.7844875346260386,2440,500,feet,631587,777883,58.0
275,243745,DepthScenes,duration_manipulation,aw,http://54.165.233.113/DepthDuration/depth_duration_Mturk/DepthDuration_HTML.html#92,92,1024,768,1024,768,2-19-2021,10-10-37,84,depth_duration_stimuli/000436_2014-06-09_22-25-11_260595134347_rgbf000137-resize_1/000436_2014-06-09_22-25-11_260595134347_rgbf000137-resize_1-target.png,500,4.0705,1.3728531855955675,2522,500,feet,631587,777883,58.0
280,243745,DepthScenes,duration_manipulation,aw,http://54.165.233.113/DepthDuration/depth_duration_Mturk/DepthDuration_HTML.html#92,92,1024,768,1024,768,2-19-2021,10-10-37,89,depth_duration_stimuli/001214_2014-06-17_16-13-55_260595134347_rgbf000111-resize_0/001214_2014-06-17_16-13-55_260595134347_rgbf000111-resize_0-target.png,500,2.6505,0.8825484764542936,2410,501,feet,631587,777883,58.0
284,243745,DepthScenes,duration_manipulation,aw,http://54.165.233.113/DepthDuration/depth_duration_Mturk/DepthDuration_HTML.html#92,92,1024,768,1024,768,2-19-2021,10-10-37,93,depth_duration_stimuli/002953_2014-06-08_17-32-18_094959634447_rgbf000059-resize_5/002953_2014-06-08_17-32-18_094959634447_rgbf000059-resize_5-target.png,500,1.551,0.3922437673130193,2046,499,feet,631587,777883,58.0
285,243745,DepthScenes,duration_manipulation,aw,http://54.165.233.113/DepthDuration/depth_duration_Mturk/DepthDuration_HTML.html#92,92,1024,768,1024,768,2-19-2021,10-10-37,94,depth_duration_stimuli/001806_2014-06-26_20-50-20_260595134347_rgbf000091-resize_1/001806_2014-06-26_20-50-20_260595134347_rgbf000091-resize_1-target.png,500,2.7305,0.588365650969529,1989,500,feet,631587,777883,58.0
286,243745,DepthScenes,duration_manipulation,aw,http://54.165.233.113/DepthDuration/depth_duration_Mturk/DepthDuration_HTML.html#92,92,1024,768,1024,768,2-19-2021,10-10-37,95,depth_duration_stimuli/000854_2014-06-09_19-43-13_260595134347_rgbf000066-resize_0/000854_2014-06-09_19-43-13_260595134347_rgbf000066-resize_0-target.png,500,3.068,0.588365650969529,2099,493,feet,631587,777883,58.0
293,243745,DepthScenes,duration_manipulation,aw,http://54.165.233.113/DepthDuration/depth_duration_Mturk/DepthDuration_HTML.html#92,92,1024,768,1024,768,2-19-2021,10-10-37,102,depth_duration_stimuli/000753_2014-06-08_21-57-44_260595134347_rgbf000123-resize_3/000753_2014-06-08_21-57-44_260595134347_rgbf000123-resize_3-target.png,500,1.916,0.588365650969529,2394,500,feet,631587,777883,58.0
295,243745,DepthScenes,duration_manipulation,aw,http://54.165.233.113/DepthDuration/depth_duration_Mturk/DepthDuration_HTML.html#92,92,1024,768,1024,768,2-19-2021,10-10-37,104,depth_duration_stimuli/000642_2014-06-08_16-59-25_260595134347_rgbf000098-resize_2/000642_2014-06-08_16-59-25_260595134347_rgbf000098-resize_2-target.png,500,2.8815,1.0786703601108032,2587,500,feet,631587,777883,58.0
299,243745,DepthScenes,duration_manipulation,aw,http://54.165.233.113/DepthDuration/depth_duration_Mturk/DepthDuration_HTML.html#92,92,1024,768,1024,768,2-19-2021,10-10-37,108,depth_duration_stimuli/003092_2014-06-24_21-01-49_094959634447_rgbf000049-resize_2/003092_2014-06-24_21-01-49_094959634447_rgbf000049-resize_2-target.png,500,1.666,0.3922437673130193,2427,500,feet,631587,777883,58.0
302,243745,DepthScenes,duration_manipulation,aw,http://54.165.233.113/DepthDuration/depth_duration_Mturk/DepthDuration_HTML.html#92,92,1024,768,1024,768,2-19-2021,10-10-37,111,depth_duration_stimuli/001449_2014-06-19_17-01-27_260595134347_rgbf000116-resize_2/001449_2014-06-19_17-01-27_260595134347_rgbf000116-resize_2-target.png,500,3.452,1.2747922437673127,2569,500,feet,631587,777883,58.0
315,243745,DepthScenes,duration_manipulation,aw,http://54.165.233.113/DepthDuration/depth_duration_Mturk/DepthDuration_HTML.html#92,92,1024,768,1024,768,2-19-2021,10-10-37,124,depth_duration_stimuli/002103_2014-06-25_20-00-40_260595134347_rgbf000049-resize_0/002103_2014-06-25_20-00-40_260595134347_rgbf000049-resize_0-target.png,500,4.105,1.4709141274238224,2665,500,feet,631587,777883,58.0
324,243745,DepthScenes,duration_manipulation,aw,http://54.165.233.113/DepthDuration/depth_duration_Mturk/DepthDuration_HTML.html#92,92,1024,768,1024,768,2-19-2021,10-10-37,133,depth_duration_stimuli/001235_2014-06-17_16-37-36_260595134347_rgbf000084-resize_4/001235_2014-06-17_16-37-36_260595134347_rgbf000084-resize_4-target.png,500,3.6605,1.4709141274238224,2216,501,feet,631587,777883,58.0
325,243745,DepthScenes,duration_manipulation,aw,http://54.165.233.113/DepthDuration/depth_duration_Mturk/DepthDuration_HTML.html#92,92,1024,768,1024,768,2-19-2021,10-10-37,134,depth_duration_stimuli/002153_2014-06-25_21-27-18_260595134347_rgbf000038-resize_5/002153_2014-06-25_21-27-18_260595134347_rgbf000038-resize_5-target.png,500,2.505,0.9806094182825482,4602,500,feet,631587,777883,58.0
326,243745,DepthScenes,duration_manipulation,aw,http://54.165.233.113/DepthDuration/depth_duration_Mturk/DepthDuration_HTML.html#92,92,1024,768,1024,768,2-19-2021,10-10-37,135,depth_duration_stimuli/000749_2014-06-08_21-55-06_260595134347_rgbf000070-resize_2/000749_2014-06-08_21-55-06_260595134347_rgbf000070-resize_2-target.png,500,2.331,0.9806094182825482,2426,501,feet,631587,777883,58.0
328,243745,DepthScenes,duration_manipulation,aw,http://54.165.233.113/DepthDuration/depth_duration_Mturk/DepthDuration_HTML.html#92,92,1024,768,1024,768,2-19-2021,10-10-37,137,depth_duration_stimuli/001181_2014-06-17_15-50-57_260595134347_rgbf000106-resize_4/001181_2014-06-17_15-50-57_260595134347_rgbf000106-resize_4-target.png,500,4.149,1.9612188365650964,2251,500,feet,631587,777883,58.0
330,243745,DepthScenes,duration_manipulation,aw,http://54.165.233.113/DepthDuration/depth_duration_Mturk/DepthDuration_HTML.html#92,92,1024,768,1024,768,2-19-2021,10-10-37,139,depth_duration_stimuli/000457_2014-06-08_16-52-43_260595134347_rgbf000199-resize_1/000457_2014-06-08_16-52-43_260595134347_rgbf000199-resize_1-target.png,500,3.6489999999999996,1.176731301939058,2710,498,feet,631587,777883,58.0
332,243745,DepthScenes,duration_manipulation,aw,http://54.165.233.113/DepthDuration/depth_duration_Mturk/DepthDuration_HTML.html#92,92,1024,768,1024,768,2-19-2021,10-10-37,141,depth_duration_stimuli/000103_2014-05-14_22-01-17_260595134347_rgbf000152-resize_5/000103_2014-05-14_22-01-17_260595134347_rgbf000152-resize_5-target.png,500,1.993,0.7844875346260386,2825,501,feet,631587,777883,58.0
333,243745,DepthScenes,duration_manipulation,aw,http://54.165.233.113/DepthDuration/depth_duration_Mturk/DepthDuration_HTML.html#92,92,1024,768,1024,768,2-19-2021,10-10-37,142,depth_duration_stimuli/001175_2014-06-17_15-45-55_260595134347_rgbf000129-resize_4/001175_2014-06-17_15-45-55_260595134347_rgbf000129-resize_4-target.png,500,4.255,1.9612188365650964,2170,500,feet,631587,777883,58.0
336,243745,DepthScenes,duration_manipulation,aw,http://54.165.233.113/DepthDuration/depth_duration_Mturk/DepthDuration_HTML.html#92,92,1024,768,1024,768,2-19-2021,10-10-37,145,depth_duration_stimuli/002344_2014-06-28_20-06-29_260595134347_rgbf000030-resize_1/002344_2014-06-28_20-06-29_260595134347_rgbf000030-resize_1-target.png,500,1.5795,0.4903047091412741,3019,503,feet,631587,777883,58.0
338,243745,DepthScenes,duration_manipulation,aw,http://54.165.233.113/DepthDuration/depth_duration_Mturk/DepthDuration_HTML.html#92,92,1024,768,1024,768,2-19-2021,10-10-37,147,depth_duration_stimuli/002725_2014-06-22_11-47-51_094959634447_rgbf000070-resize_1/002725_2014-06-22_11-47-51_094959634447_rgbf000070-resize_1-target.png,500,2.195,0.6864265927977837,1930,500,feet,631587,777883,58.0
341,243745,DepthScenes,duration_manipulation,aw,http://54.165.233.113/DepthDuration/depth_duration_Mturk/DepthDuration_HTML.html#92,92,1024,768,1024,768,2-19-2021,10-10-37,150,depth_duration_stimuli/002805_2014-06-22_19-54-03_094959634447_rgbf000079-resize_1/002805_2014-06-22_19-54-03_094959634447_rgbf000079-resize_1-target.png,500,3.1439999999999997,1.4709141274238224,2330,500,feet,631587,777883,58.0
358,243745,DepthScenes,duration_manipulation,aw,http://54.165.233.113/DepthDuration/depth_duration_Mturk/DepthDuration_HTML.html#92,92,1024,768,1024,768,2-19-2021,10-10-37,167,depth_duration_stimuli/003228_2014-05-14_13-42-35_094959634447_rgbf000101-resize_1/003228_2014-05-14_13-42-35_094959634447_rgbf000101-resize_1-target.png,500,1.9680000000000002,0.4903047091412741,2121,499,feet,631587,777883,58.0
364,243745,DepthScenes,duration_manipulation,aw,http://54.165.233.113/DepthDuration/depth_duration_Mturk/DepthDuration_HTML.html#92,92,1024,768,1024,768,2-19-2021,10-10-37,173,depth_duration_stimuli/003621_2014-05-23_18-06-08_094959634447_rgbf000101-resize_1/003621_2014-05-23_18-06-08_094959634447_rgbf000101-resize_1-target.png,500,3.9835,1.3728531855955675,2420,510,feet,631587,777883,58.0
366,243745,DepthScenes,duration_manipulation,aw,http://54.165.233.113/DepthDuration/depth_duration_Mturk/DepthDuration_HTML.html#92,92,1024,768,1024,768,2-19-2021,10-10-37,175,depth_duration_stimuli/002375_2014-06-28_20-13-44_260595134347_rgbf000032-resize_1/002375_2014-06-28_20-13-44_260595134347_rgbf000032-resize_1-target.png,500,4.0175,0.9806094182825482,2378,500,feet,631587,777883,58.0
369,243745,DepthScenes,duration_manipulation,aw,http://54.165.233.113/DepthDuration/depth_duration_Mturk/DepthDuration_HTML.html#92,92,1024,768,1024,768,2-19-2021,10-10-37,178,depth_duration_stimuli/000506_2014-06-08_23-21-00_260595134347_rgbf000070-resize_7/000506_2014-06-08_23-21-00_260595134347_rgbf000070-resize_7-target.png,500,4.0585,1.176731301939058,2170,500,feet,631587,777883,58.0
372,243745,DepthScenes,duration_manipulation,aw,http://54.165.233.113/DepthDuration/depth_duration_Mturk/DepthDuration_HTML.html#92,92,1024,768,1024,768,2-19-2021,10-10-37,181,depth_duration_stimuli/001055_2014-06-08_18-45-35_260595134347_rgbf000111-resize_4/001055_2014-06-08_18-45-35_260595134347_rgbf000111-resize_4-target.png,500,2.4290000000000003,0.9806094182825482,2826,500,feet,631587,777883,58.0
374,243745,DepthScenes,duration_manipulation,aw,http://54.165.233.113/DepthDuration/depth_duration_Mturk/DepthDuration_HTML.html#92,92,1024,768,1024,768,2-19-2021,10-10-37,183,depth_duration_stimuli/001810_2014-06-26_20-51-35_260595134347_rgbf000040-resize_3/001810_2014-06-26_20-51-35_260595134347_rgbf000040-resize_3-target.png,500,2.2525,0.588365650969529,2041,500,feet,631587,777883,58.0
379,243745,DepthScenes,duration_manipulation,aw,http://54.165.233.113/DepthDuration/depth_duration_Mturk/DepthDuration_HTML.html#92,92,1024,768,1024,768,2-19-2021,10-10-37,188,depth_duration_stimuli/001132_2014-06-17_14-48-54_260595134347_rgbf000100-resize_2/001132_2014-06-17_14-48-54_260595134347_rgbf000100-resize_2-target.png,500,3.753,1.176731301939058,2265,500,feet,631587,777883,58.0
381,243745,DepthScenes,duration_manipulation,aw,http://54.165.233.113/DepthDuration/depth_duration_Mturk/DepthDuration_HTML.html#92,92,1024,768,1024,768,2-19-2021,10-10-37,190,depth_duration_stimuli/000486_2014-06-09_20-47-20_260595134347_rgbf000143-resize_2/000486_2014-06-09_20-47-20_260595134347_rgbf000143-resize_2-target.png,500,4.8325,1.5689750692520772,2746,501,feet,631587,777883,58.0
382,243745,DepthScenes,duration_manipulation,aw,http://54.165.233.113/DepthDuration/depth_duration_Mturk/DepthDuration_HTML.html#92,92,1024,768,1024,768,2-19-2021,10-10-37,191,depth_duration_stimuli/003534_2014-05-22_15-06-10_094959634447_rgbf000102-resize_4/003534_2014-05-22_15-06-10_094959634447_rgbf000102-resize_4-target.png,500,1.426,0.3922437673130193,2459,500,feet,631587,777883,58.0
385,563901,DepthScenes,duration_manipulation,av,http://54.165.233.113/DepthDuration/depth_duration_Mturk/DepthDuration_HTML.html#87,87,1680,907,1680,1050,2-19-2021,10-11-20,2,depth_duration_stimuli/001055_2014-06-08_18-45-35_260595134347_rgbf000111-resize_4/001055_2014-06-08_18-45-35_260595134347_rgbf000111-resize_4-target.png,500,2.4290000000000003,0.9266221952698603,6343,508,feet,1251830,1359344,56.0
387,563901,DepthScenes,duration_manipulation,av,http://54.165.233.113/DepthDuration/depth_duration_Mturk/DepthDuration_HTML.html#87,87,1680,907,1680,1050,2-19-2021,10-11-20,4,depth_duration_stimuli/000742_2014-06-08_18-48-09_260595134347_rgbf000164-resize_4/000742_2014-06-08_18-48-09_260595134347_rgbf000164-resize_4-target.png,500,4.632,0.8107944208611277,7334,497,feet,1251830,1359344,56.0
390,563901,DepthScenes,duration_manipulation,av,http://54.165.233.113/DepthDuration/depth_duration_Mturk/DepthDuration_HTML.html#87,87,1680,907,1680,1050,2-19-2021,10-11-20,7,depth_duration_stimuli/001447_2014-06-19_17-00-32_260595134347_rgbf000082-resize_5/001447_2014-06-19_17-00-32_260595134347_rgbf000082-resize_5-target.png,500,4.13775,0.5791388720436627,6501,499,feet,1251830,1359344,56.0
392,563901,DepthScenes,duration_manipulation,av,http://54.165.233.113/DepthDuration/depth_duration_Mturk/DepthDuration_HTML.html#87,87,1680,907,1680,1050,2-19-2021,10-11-20,9,depth_duration_stimuli/001100_2014-06-15_17-46-26_260595134347_rgbf000225-resize_2/001100_2014-06-15_17-46-26_260595134347_rgbf000225-resize_2-target.png,500,2.24,0.46331109763493017,5640,496,feet,1251830,1359344,56.0
395,563901,DepthScenes,duration_manipulation,av,http://54.165.233.113/DepthDuration/depth_duration_Mturk/DepthDuration_HTML.html#87,87,1680,907,1680,1050,2-19-2021,10-11-20,12,depth_duration_stimuli/003292_2014-05-14_21-53-49_094959634447_rgbf000100-resize_2/003292_2014-05-14_21-53-49_094959634447_rgbf000100-resize_2-target.png,500,3.4815,0.6949666464523954,8117,500,feet,1251830,1359344,56.0
396,563901,DepthScenes,duration_manipulation,av,http://54.165.233.113/DepthDuration/depth_duration_Mturk/DepthDuration_HTML.html#87,87,1680,907,1680,1050,2-19-2021,10-11-20,13,depth_duration_stimuli/000521_2014-06-08_13-34-35_260595134347_rgbf000191-resize_2/000521_2014-06-08_13-34-35_260595134347_rgbf000191-resize_2-target.png,500,3.0385,0.5791388720436627,8525,498,feet,1251830,1359344,56.0
399,563901,DepthScenes,duration_manipulation,av,http://54.165.233.113/DepthDuration/depth_duration_Mturk/DepthDuration_HTML.html#87,87,1680,907,1680,1050,2-19-2021,10-11-20,16,depth_duration_stimuli/002788_2014-06-22_19-36-03_094959634447_rgbf000088-resize_2/002788_2014-06-22_19-36-03_094959634447_rgbf000088-resize_2-target.png,500,1.6465,0.5791388720436627,4408,523,feet,1251830,1359344,56.0
404,563901,DepthScenes,duration_manipulation,av,http://54.165.233.113/DepthDuration/depth_duration_Mturk/DepthDuration_HTML.html#87,87,1680,907,1680,1050,2-19-2021,10-11-20,21,depth_duration_stimuli/000773_2014-06-08_22-24-54_260595134347_rgbf000093-resize_1/000773_2014-06-08_22-24-54_260595134347_rgbf000093-resize_1-target.png,500,4.973,1.3899332929047907,7384,476,feet,1251830,1359344,56.0
411,563901,DepthScenes,duration_manipulation,av,http://54.165.233.113/DepthDuration/depth_duration_Mturk/DepthDuration_HTML.html#87,87,1680,907,1680,1050,2-19-2021,10-11-20,28,depth_duration_stimuli/002784_2014-06-22_19-26-30_094959634447_rgbf000083-resize_3/002784_2014-06-22_19-26-30_094959634447_rgbf000083-resize_3-target.png,500,1.8046666666667,0.46331109763493017,4022,498,feet,1251830,1359344,56.0
417,563901,DepthScenes,duration_manipulation,av,http://54.165.233.113/DepthDuration/depth_duration_Mturk/DepthDuration_HTML.html#87,87,1680,907,1680,1050,2-19-2021,10-11-20,34,depth_duration_stimuli/001199_2014-06-17_16-03-48_260595134347_rgbf000077-resize_0/001199_2014-06-17_16-03-48_260595134347_rgbf000077-resize_0-target.png,500,3.4375,0.6949666464523954,5461,497,feet,1251830,1359344,56.0
418,563901,DepthScenes,duration_manipulation,av,http://54.165.233.113/DepthDuration/depth_duration_Mturk/DepthDuration_HTML.html#87,87,1680,907,1680,1050,2-19-2021,10-11-20,35,depth_duration_stimuli/001650_2014-06-20_12-09-00_260595134347_rgbf000087-resize_3/001650_2014-06-20_12-09-00_260595134347_rgbf000087-resize_3-target.png,500,1.9505,0.23165554881746508,4994,499,feet,1251830,1359344,56.0
431,563901,DepthScenes,duration_manipulation,av,http://54.165.233.113/DepthDuration/depth_duration_Mturk/DepthDuration_HTML.html#87,87,1680,907,1680,1050,2-19-2021,10-11-20,48,depth_duration_stimuli/002153_2014-06-25_21-27-18_260595134347_rgbf000038-resize_5/002153_2014-06-25_21-27-18_260595134347_rgbf000038-resize_5-target.png,500,2.505,0.5791388720436627,4484,498,feet,1251830,1359344,56.0
436,563901,DepthScenes,duration_manipulation,av,http://54.165.233.113/DepthDuration/depth_duration_Mturk/DepthDuration_HTML.html#87,87,1680,907,1680,1050,2-19-2021,10-11-20,53,depth_duration_stimuli/000736_2014-06-08_18-24-15_260595134347_rgbf000206-resize_3/000736_2014-06-08_18-24-15_260595134347_rgbf000206-resize_3-target.png,500,3.515,0.9266221952698603,5408,483,feet,1251830,1359344,56.0
437,563901,DepthScenes,duration_manipulation,av,http://54.165.233.113/DepthDuration/depth_duration_Mturk/DepthDuration_HTML.html#87,87,1680,907,1680,1050,2-19-2021,10-11-20,54,depth_duration_stimuli/003079_2014-06-15_15-18-20_094959634447_rgbf000152-resize_8/003079_2014-06-15_15-18-20_094959634447_rgbf000152-resize_8-target.png,500,2.8775,1.3899332929047907,5580,505,feet,1251830,1359344,56.0
438,563901,DepthScenes,duration_manipulation,av,http://54.165.233.113/DepthDuration/depth_duration_Mturk/DepthDuration_HTML.html#87,87,1680,907,1680,1050,2-19-2021,10-11-20,55,depth_duration_stimuli/002639_2014-06-24_14-51-37_094959634447_rgbf000074-resize_4/002639_2014-06-24_14-51-37_094959634447_rgbf000074-resize_4-target.png,500,4.0375,0.9266221952698603,3749,507,feet,1251830,1359344,56.0
440,563901,DepthScenes,duration_manipulation,av,http://54.165.233.113/DepthDuration/depth_duration_Mturk/DepthDuration_HTML.html#87,87,1680,907,1680,1050,2-19-2021,10-11-20,57,depth_duration_stimuli/001052_2014-06-08_18-24-54_260595134347_rgbf000130-resize_1/001052_2014-06-08_18-24-54_260595134347_rgbf000130-resize_1-target.png,500,4.1045,1.3899332929047907,4602,507,feet,1251830,1359344,56.0
447,563901,DepthScenes,duration_manipulation,av,http://54.165.233.113/DepthDuration/depth_duration_Mturk/DepthDuration_HTML.html#87,87,1680,907,1680,1050,2-19-2021,10-11-20,64,depth_duration_stimuli/002988_2014-06-15_12-24-20_094959634447_rgbf000150-resize_1/002988_2014-06-15_12-24-20_094959634447_rgbf000150-resize_1-target.png,500,4.7669999999999995,2.3165554881746506,5381,501,feet,1251830,1359344,56.0
451,563901,DepthScenes,duration_manipulation,av,http://54.165.233.113/DepthDuration/depth_duration_Mturk/DepthDuration_HTML.html#87,87,1680,907,1680,1050,2-19-2021,10-11-20,68,depth_duration_stimuli/000103_2014-05-14_22-01-17_260595134347_rgbf000152-resize_5/000103_2014-05-14_22-01-17_260595134347_rgbf000152-resize_5-target.png,500,1.993,0.5791388720436627,4625,505,feet,1251830,1359344,56.0
456,563901,DepthScenes,duration_manipulation,av,http://54.165.233.113/DepthDuration/depth_duration_Mturk/DepthDuration_HTML.html#87,87,1680,907,1680,1050,2-19-2021,10-11-20,73,depth_duration_stimuli/000692_2014-06-08_13-09-42_260595134347_rgbf000199-resize_2/000692_2014-06-08_13-09-42_260595134347_rgbf000199-resize_2-target.png,500,3.661,1.3899332929047907,4461,503,feet,1251830,1359344,56.0
462,563901,DepthScenes,duration_manipulation,av,http://54.165.233.113/DepthDuration/depth_duration_Mturk/DepthDuration_HTML.html#87,87,1680,907,1680,1050,2-19-2021,10-11-20,79,depth_duration_stimuli/002995_2014-06-15_12-31-26_094959634447_rgbf000150-resize_1/002995_2014-06-15_12-31-26_094959634447_rgbf000150-resize_1-target.png,500,3.8360000000000003,0.5791388720436627,5169,509,feet,1251830,1359344,56.0
465,563901,DepthScenes,duration_manipulation,av,http://54.165.233.113/DepthDuration/depth_duration_Mturk/DepthDuration_HTML.html#87,87,1680,907,1680,1050,2-19-2021,10-11-20,82,depth_duration_stimuli/000749_2014-06-08_21-55-06_260595134347_rgbf000070-resize_2/000749_2014-06-08_21-55-06_260595134347_rgbf000070-resize_2-target.png,500,2.331,0.6949666464523954,6378,513,feet,1251830,1359344,56.0
466,563901,DepthScenes,duration_manipulation,av,http://54.165.233.113/DepthDuration/depth_duration_Mturk/DepthDuration_HTML.html#87,87,1680,907,1680,1050,2-19-2021,10-11-20,83,depth_duration_stimuli/002758_2014-06-22_19-11-20_094959634447_rgbf000128-resize_1/002758_2014-06-22_19-11-20_094959634447_rgbf000128-resize_1-target.png,500,2.555,0.6949666464523954,6841,502,feet,1251830,1359344,56.0
473,563901,DepthScenes,duration_manipulation,av,http://54.165.233.113/DepthDuration/depth_duration_Mturk/DepthDuration_HTML.html#87,87,1680,907,1680,1050,2-19-2021,10-11-20,90,depth_duration_stimuli/001136_2014-06-17_15-19-41_260595134347_rgbf000076-resize_3/001136_2014-06-17_15-19-41_260595134347_rgbf000076-resize_3-target.png,500,1.8655,0.6949666464523954,4008,502,feet,1251830,1359344,56.0
478,563901,DepthScenes,duration_manipulation,av,http://54.165.233.113/DepthDuration/depth_duration_Mturk/DepthDuration_HTML.html#87,87,1680,907,1680,1050,2-19-2021,10-11-20,95,depth_duration_stimuli/002272_2014-06-28_18-53-56_260595134347_rgbf000067-resize_2/002272_2014-06-28_18-53-56_260595134347_rgbf000067-resize_2-target.png,500,1.138,0.3474833232261977,4283,505,feet,1251830,1359344,56.0
488,563901,DepthScenes,duration_manipulation,av,http://54.165.233.113/DepthDuration/depth_duration_Mturk/DepthDuration_HTML.html#87,87,1680,907,1680,1050,2-19-2021,10-11-20,105,depth_duration_stimuli/000788_2014-06-08_22-34-36_260595134347_rgbf000131-resize_1/000788_2014-06-08_22-34-36_260595134347_rgbf000131-resize_1-target.png,500,3.359,0.9266221952698603,4878,493,feet,1251830,1359344,56.0
489,563901,DepthScenes,duration_manipulation,av,http://54.165.233.113/DepthDuration/depth_duration_Mturk/DepthDuration_HTML.html#87,87,1680,907,1680,1050,2-19-2021,10-11-20,106,depth_duration_stimuli/000878_2014-06-08_22-52-45_260595134347_rgbf000045-resize_2/000878_2014-06-08_22-52-45_260595134347_rgbf000045-resize_2-target.png,500,2.092,1.1582777440873253,4549,497,feet,1251830,1359344,56.0
493,563901,DepthScenes,duration_manipulation,av,http://54.165.233.113/DepthDuration/depth_duration_Mturk/DepthDuration_HTML.html#87,87,1680,907,1680,1050,2-19-2021,10-11-20,110,depth_duration_stimuli/002763_2014-06-22_19-13-10_094959634447_rgbf000075-resize_4/002763_2014-06-22_19-13-10_094959634447_rgbf000075-resize_4-target.png,500,1.68375,0.5791388720436627,4063,502,feet,1251830,1359344,56.0
494,563901,DepthScenes,duration_manipulation,av,http://54.165.233.113/DepthDuration/depth_duration_Mturk/DepthDuration_HTML.html#87,87,1680,907,1680,1050,2-19-2021,10-11-20,111,depth_duration_stimuli/002549_2014-06-24_13-41-39_094959634447_rgbf000022-resize_3/002549_2014-06-24_13-41-39_094959634447_rgbf000022-resize_3-target.png,500,1.476,0.46331109763493017,4448,503,feet,1251830,1359344,56.0
495,563901,DepthScenes,duration_manipulation,av,http://54.165.233.113/DepthDuration/depth_duration_Mturk/DepthDuration_HTML.html#87,87,1680,907,1680,1050,2-19-2021,10-11-20,112,depth_duration_stimuli/003069_2014-06-15_14-57-50_094959634447_rgbf000150-resize_4/003069_2014-06-15_14-57-50_094959634447_rgbf000150-resize_4-target.png,500,4.208,1.737416616130988,4680,498,feet,1251830,1359344,56.0
502,563901,DepthScenes,duration_manipulation,av,http://54.165.233.113/DepthDuration/depth_duration_Mturk/DepthDuration_HTML.html#87,87,1680,907,1680,1050,2-19-2021,10-11-20,119,depth_duration_stimuli/001110_2014-06-15_17-25-28_260595134347_rgbf000150-resize_1/001110_2014-06-15_17-25-28_260595134347_rgbf000150-resize_1-target.png,500,1.7115,0.46331109763493017,5369,502,feet,1251830,1359344,56.0
505,563901,DepthScenes,duration_manipulation,av,http://54.165.233.113/DepthDuration/depth_duration_Mturk/DepthDuration_HTML.html#87,87,1680,907,1680,1050,2-19-2021,10-11-20,122,depth_duration_stimuli/000457_2014-06-08_16-52-43_260595134347_rgbf000199-resize_1/000457_2014-06-08_16-52-43_260595134347_rgbf000199-resize_1-target.png,500,3.6489999999999996,1.3899332929047907,4572,488,feet,1251830,1359344,56.0
506,563901,DepthScenes,duration_manipulation,av,http://54.165.233.113/DepthDuration/depth_duration_Mturk/DepthDuration_HTML.html#87,87,1680,907,1680,1050,2-19-2021,10-11-20,123,depth_duration_stimuli/001148_2014-06-17_15-26-42_260595134347_rgbf000129-resize_0/001148_2014-06-17_15-26-42_260595134347_rgbf000129-resize_0-target.png,500,4.368,1.8532443905397207,3802,499,feet,1251830,1359344,56.0
507,563901,DepthScenes,duration_manipulation,av,http://54.165.233.113/DepthDuration/depth_duration_Mturk/DepthDuration_HTML.html#87,87,1680,907,1680,1050,2-19-2021,10-11-20,124,depth_duration_stimuli/001264_2014-06-16_16-10-23_260595134347_rgbf000109-resize_1/001264_2014-06-16_16-10-23_260595134347_rgbf000109-resize_1-target.png,500,2.9665,0.9266221952698603,4185,514,feet,1251830,1359344,56.0
513,563901,DepthScenes,duration_manipulation,av,http://54.165.233.113/DepthDuration/depth_duration_Mturk/DepthDuration_HTML.html#87,87,1680,907,1680,1050,2-19-2021,10-11-20,130,depth_duration_stimuli/000447_2014-06-08_16-15-46_260595134347_rgbf000130-resize_1/000447_2014-06-08_16-15-46_260595134347_rgbf000130-resize_1-target.png,500,4.479,1.1582777440873253,6383,506,feet,1251830,1359344,56.0
517,563901,DepthScenes,duration_manipulation,av,http://54.165.233.113/DepthDuration/depth_duration_Mturk/DepthDuration_HTML.html#87,87,1680,907,1680,1050,2-19-2021,10-11-20,134,depth_duration_stimuli/002805_2014-06-22_19-54-03_094959634447_rgbf000079-resize_1/002805_2014-06-22_19-54-03_094959634447_rgbf000079-resize_1-target.png,500,3.1439999999999997,1.1582777440873253,4977,499,feet,1251830,1359344,56.0
521,563901,DepthScenes,duration_manipulation,av,http://54.165.233.113/DepthDuration/depth_duration_Mturk/DepthDuration_HTML.html#87,87,1680,907,1680,1050,2-19-2021,10-11-20,138,depth_duration_stimuli/001056_2014-06-08_18-46-44_260595134347_rgbf000068-resize_0/001056_2014-06-08_18-46-44_260595134347_rgbf000068-resize_0-target.png,500,2.6625,0.9266221952698603,4316,504,feet,1251830,1359344,56.0
528,563901,DepthScenes,duration_manipulation,av,http://54.165.233.113/DepthDuration/depth_duration_Mturk/DepthDuration_HTML.html#87,87,1680,907,1680,1050,2-19-2021,10-11-20,145,depth_duration_stimuli/000665_2014-06-09_20-42-35_260595134347_rgbf000110-resize_1/000665_2014-06-09_20-42-35_260595134347_rgbf000110-resize_1-target.png,500,3.057,0.9266221952698603,4155,500,feet,1251830,1359344,56.0
537,563901,DepthScenes,duration_manipulation,av,http://54.165.233.113/DepthDuration/depth_duration_Mturk/DepthDuration_HTML.html#87,87,1680,907,1680,1050,2-19-2021,10-11-20,154,depth_duration_stimuli/001806_2014-06-26_20-50-20_260595134347_rgbf000091-resize_1/001806_2014-06-26_20-50-20_260595134347_rgbf000091-resize_1-target.png,500,2.7305,0.5791388720436627,5276,502,feet,1251830,1359344,56.0
540,563901,DepthScenes,duration_manipulation,av,http://54.165.233.113/DepthDuration/depth_duration_Mturk/DepthDuration_HTML.html#87,87,1680,907,1680,1050,2-19-2021,10-11-20,157,depth_duration_stimuli/003048_2014-06-15_13-49-43_094959634447_rgbf000150-resize_1/003048_2014-06-15_13-49-43_094959634447_rgbf000150-resize_1-target.png,500,4.0035,1.8532443905397207,3899,515,feet,1251830,1359344,56.0
543,563901,DepthScenes,duration_manipulation,av,http://54.165.233.113/DepthDuration/depth_duration_Mturk/DepthDuration_HTML.html#87,87,1680,907,1680,1050,2-19-2021,10-11-20,160,depth_duration_stimuli/003228_2014-05-14_13-42-35_094959634447_rgbf000101-resize_1/003228_2014-05-14_13-42-35_094959634447_rgbf000101-resize_1-target.png,500,1.9680000000000002,0.5791388720436627,4360,504,feet,1251830,1359344,56.0
544,563901,DepthScenes,duration_manipulation,av,http://54.165.233.113/DepthDuration/depth_duration_Mturk/DepthDuration_HTML.html#87,87,1680,907,1680,1050,2-19-2021,10-11-20,161,depth_duration_stimuli/001175_2014-06-17_15-45-55_260595134347_rgbf000129-resize_4/001175_2014-06-17_15-45-55_260595134347_rgbf000129-resize_4-target.png,500,4.255,1.3899332929047907,4625,505,feet,1251830,1359344,56.0
555,563901,DepthScenes,duration_manipulation,av,http://54.165.233.113/DepthDuration/depth_duration_Mturk/DepthDuration_HTML.html#87,87,1680,907,1680,1050,2-19-2021,10-11-20,172,depth_duration_stimuli/001244_2014-06-17_16-47-45_260595134347_rgbf000030-resize_4/001244_2014-06-17_16-47-45_260595134347_rgbf000030-resize_4-target.png,500,2.0425,1.737416616130988,3241,503,feet,1251830,1359344,56.0
556,563901,DepthScenes,duration_manipulation,av,http://54.165.233.113/DepthDuration/depth_duration_Mturk/DepthDuration_HTML.html#87,87,1680,907,1680,1050,2-19-2021,10-11-20,173,depth_duration_stimuli/001532_2014-06-20_16-50-41_260595134347_rgbf000081-resize_4/001532_2014-06-20_16-50-41_260595134347_rgbf000081-resize_4-target.png,500,1.5758333333333001,0.6949666464523954,5132,490,feet,1251830,1359344,56.0
559,563901,DepthScenes,duration_manipulation,av,http://54.165.233.113/DepthDuration/depth_duration_Mturk/DepthDuration_HTML.html#87,87,1680,907,1680,1050,2-19-2021,10-11-20,176,depth_duration_stimuli/000470_2014-06-09_19-42-40_260595134347_rgbf000094-resize_1/000470_2014-06-09_19-42-40_260595134347_rgbf000094-resize_1-target.png,500,1.831,0.6949666464523954,23317,497,feet,1251830,1359344,56.0
562,563901,DepthScenes,duration_manipulation,av,http://54.165.233.113/DepthDuration/depth_duration_Mturk/DepthDuration_HTML.html#87,87,1680,907,1680,1050,2-19-2021,10-11-20,179,depth_duration_stimuli/000691_2014-06-08_13-08-50_260595134347_rgbf000132-resize_3/000691_2014-06-08_13-08-50_260595134347_rgbf000132-resize_3-target.png,500,4.1530000000000005,1.3899332929047907,3847,494,feet,1251830,1359344,56.0
568,563901,DepthScenes,duration_manipulation,av,http://54.165.233.113/DepthDuration/depth_duration_Mturk/DepthDuration_HTML.html#87,87,1680,907,1680,1050,2-19-2021,10-11-20,185,depth_duration_stimuli/000636_2014-06-08_16-39-02_260595134347_rgbf000108-resize_4/000636_2014-06-08_16-39-02_260595134347_rgbf000108-resize_4-target.png,500,2.682,0.9266221952698603,5032,511,feet,1251830,1359344,56.0
574,563901,DepthScenes,duration_manipulation,av,http://54.165.233.113/DepthDuration/depth_duration_Mturk/DepthDuration_HTML.html#87,87,1680,907,1680,1050,2-19-2021,10-11-20,191,depth_duration_stimuli/001617_2014-06-20_11-35-32_260595134347_rgbf000066-resize_1/001617_2014-06-20_11-35-32_260595134347_rgbf000066-resize_1-target.png,500,3.7910000000000004,2.3165554881746506,4692,503,feet,1251830,1359344,56.0
575,563901,DepthScenes,duration_manipulation,av,http://54.165.233.113/DepthDuration/depth_duration_Mturk/DepthDuration_HTML.html#87,87,1680,907,1680,1050,2-19-2021,10-11-20,192,depth_duration_stimuli/002425_2014-06-28_20-27-29_260595134347_rgbf000031-resize_8/002425_2014-06-28_20-27-29_260595134347_rgbf000031-resize_8-target.png,500,3.8960000000000004,1.8532443905397207,4453,491,feet,1251830,1359344,56.0
578,846649,DepthScenes,duration_manipulation,aj,http://54.165.233.113/DepthDuration/depth_duration_Mturk/DepthDuration_HTML.html#39,39,1366,768,1366,768,2-19-2021,10-11-2,3,depth_duration_stimuli/000854_2014-06-09_19-43-13_260595134347_rgbf000066-resize_0/000854_2014-06-09_19-43-13_260595134347_rgbf000066-resize_0-target.png,500,3.068,0.3761194029850746,2491,500,meters,1036210,1351972,35.0
587,846649,DepthScenes,duration_manipulation,aj,http://54.165.233.113/DepthDuration/depth_duration_Mturk/DepthDuration_HTML.html#39,39,1366,768,1366,768,2-19-2021,10-11-2,12,depth_duration_stimuli/001516_2014-06-20_16-25-09_260595134347_rgbf000076-resize_2/001516_2014-06-20_16-25-09_260595134347_rgbf000076-resize_2-target.png,500,1.7445,1.128358208955224,1763,500,meters,1036210,1351972,35.0
588,846649,DepthScenes,duration_manipulation,aj,http://54.165.233.113/DepthDuration/depth_duration_Mturk/DepthDuration_HTML.html#39,39,1366,768,1366,768,2-19-2021,10-11-2,13,depth_duration_stimuli/001810_2014-06-26_20-51-35_260595134347_rgbf000040-resize_3/001810_2014-06-26_20-51-35_260595134347_rgbf000040-resize_3-target.png,500,2.2525,0.9402985074626866,1640,500,meters,1036210,1351972,35.0
589,846649,DepthScenes,duration_manipulation,aj,http://54.165.233.113/DepthDuration/depth_duration_Mturk/DepthDuration_HTML.html#39,39,1366,768,1366,768,2-19-2021,10-11-2,14,depth_duration_stimuli/001392_2014-06-19_16-07-59_260595134347_rgbf000046-resize_1/001392_2014-06-19_16-07-59_260595134347_rgbf000046-resize_1-target.png,500,4.135,1.128358208955224,1602,500,meters,1036210,1351972,35.0
596,846649,DepthScenes,duration_manipulation,aj,http://54.165.233.113/DepthDuration/depth_duration_Mturk/DepthDuration_HTML.html#39,39,1366,768,1366,768,2-19-2021,10-11-2,21,depth_duration_stimuli/002467_2014-06-28_20-38-07_260595134347_rgbf000026-resize_2/002467_2014-06-28_20-38-07_260595134347_rgbf000026-resize_2-target.png,500,4.742,1.3164179104477614,2058,500,meters,1036210,1351972,35.0
598,846649,DepthScenes,duration_manipulation,aj,http://54.165.233.113/DepthDuration/depth_duration_Mturk/DepthDuration_HTML.html#39,39,1366,768,1366,768,2-19-2021,10-11-2,23,depth_duration_stimuli/003292_2014-05-14_21-53-49_094959634447_rgbf000100-resize_2/003292_2014-05-14_21-53-49_094959634447_rgbf000100-resize_2-target.png,500,3.4815,0.9402985074626866,1643,499,meters,1036210,1351972,35.0
608,846649,DepthScenes,duration_manipulation,aj,http://54.165.233.113/DepthDuration/depth_duration_Mturk/DepthDuration_HTML.html#39,39,1366,768,1366,768,2-19-2021,10-11-2,33,depth_duration_stimuli/003081_2014-06-15_15-19-16_094959634447_rgbf000150-resize_1/003081_2014-06-15_15-19-16_094959634447_rgbf000150-resize_1-target.png,500,3.9125,1.128358208955224,1657,500,meters,1036210,1351972,35.0
613,846649,DepthScenes,duration_manipulation,aj,http://54.165.233.113/DepthDuration/depth_duration_Mturk/DepthDuration_HTML.html#39,39,1366,768,1366,768,2-19-2021,10-11-2,38,depth_duration_stimuli/003495_2014-05-21_16-01-51_094959634447_rgbf000100-resize_3/003495_2014-05-21_16-01-51_094959634447_rgbf000100-resize_3-target.png,500,1.6255,1.128358208955224,44084,500,meters,1036210,1351972,35.0
615,846649,DepthScenes,duration_manipulation,aj,http://54.165.233.113/DepthDuration/depth_duration_Mturk/DepthDuration_HTML.html#39,39,1366,768,1366,768,2-19-2021,10-11-2,40,depth_duration_stimuli/003338_2014-05-20_11-01-23_094959634447_rgbf000051-resize_6/003338_2014-05-20_11-01-23_094959634447_rgbf000051-resize_6-target.png,500,1.693,0.3761194029850746,5287,500,meters,1036210,1351972,35.0
616,846649,DepthScenes,duration_manipulation,aj,http://54.165.233.113/DepthDuration/depth_duration_Mturk/DepthDuration_HTML.html#39,39,1366,768,1366,768,2-19-2021,10-11-2,41,depth_duration_stimuli/001570_2014-06-20_17-21-09_260595134347_rgbf000135-resize_4/001570_2014-06-20_17-21-09_260595134347_rgbf000135-resize_4-target.png,500,4.467,0.564179104477612,13201,500,meters,1036210,1351972,35.0
620,846649,DepthScenes,duration_manipulation,aj,http://54.165.233.113/DepthDuration/depth_duration_Mturk/DepthDuration_HTML.html#39,39,1366,768,1366,768,2-19-2021,10-11-2,45,depth_duration_stimuli/002600_2014-06-24_14-27-04_094959634447_rgbf000074-resize_2/002600_2014-06-24_14-27-04_094959634447_rgbf000074-resize_2-target.png,500,2.7575,1.128358208955224,2440,500,meters,1036210,1351972,35.0
621,846649,DepthScenes,duration_manipulation,aj,http://54.165.233.113/DepthDuration/depth_duration_Mturk/DepthDuration_HTML.html#39,39,1366,768,1366,768,2-19-2021,10-11-2,46,depth_duration_stimuli/003546_2014-05-22_15-48-53_094959634447_rgbf004816-resize_3/003546_2014-05-22_15-48-53_094959634447_rgbf004816-resize_3-target.png,500,2.62625,0.7522388059701492,2475,500,meters,1036210,1351972,35.0
627,846649,DepthScenes,duration_manipulation,aj,http://54.165.233.113/DepthDuration/depth_duration_Mturk/DepthDuration_HTML.html#39,39,1366,768,1366,768,2-19-2021,10-11-2,52,depth_duration_stimuli/002323_2014-06-28_20-01-54_260595134347_rgbf000051-resize_4/002323_2014-06-28_20-01-54_260595134347_rgbf000051-resize_4-target.png,500,3.7310000000000003,1.128358208955224,2354,500,meters,1036210,1351972,35.0
628,846649,DepthScenes,duration_manipulation,aj,http://54.165.233.113/DepthDuration/depth_duration_Mturk/DepthDuration_HTML.html#39,39,1366,768,1366,768,2-19-2021,10-11-2,53,depth_duration_stimuli/001808_2014-06-26_20-50-58_260595134347_rgbf000029-resize_1/001808_2014-06-26_20-50-58_260595134347_rgbf000029-resize_1-target.png,500,4.249,1.128358208955224,4289,500,meters,1036210,1351972,35.0
636,846649,DepthScenes,duration_manipulation,aj,http://54.165.233.113/DepthDuration/depth_duration_Mturk/DepthDuration_HTML.html#39,39,1366,768,1366,768,2-19-2021,10-11-2,61,depth_duration_stimuli/003587_2014-05-23_16-48-02_094959634447_rgbf002384-resize_2/003587_2014-05-23_16-48-02_094959634447_rgbf002384-resize_2-target.png,500,1.357,0.7522388059701492,2155,500,meters,1036210,1351972,35.0
640,846649,DepthScenes,duration_manipulation,aj,http://54.165.233.113/DepthDuration/depth_duration_Mturk/DepthDuration_HTML.html#39,39,1366,768,1366,768,2-19-2021,10-11-2,65,depth_duration_stimuli/000736_2014-06-08_18-24-15_260595134347_rgbf000206-resize_3/000736_2014-06-08_18-24-15_260595134347_rgbf000206-resize_3-target.png,500,3.515,1.128358208955224,2754,500,meters,1036210,1351972,35.0
644,846649,DepthScenes,duration_manipulation,aj,http://54.165.233.113/DepthDuration/depth_duration_Mturk/DepthDuration_HTML.html#39,39,1366,768,1366,768,2-19-2021,10-11-2,69,depth_duration_stimuli/002460_2014-06-28_20-35-43_260595134347_rgbf000028-resize_4/002460_2014-06-28_20-35-43_260595134347_rgbf000028-resize_4-target.png,500,2.269,0.9402985074626866,2113,500,meters,1036210,1351972,35.0
651,846649,DepthScenes,duration_manipulation,aj,http://54.165.233.113/DepthDuration/depth_duration_Mturk/DepthDuration_HTML.html#39,39,1366,768,1366,768,2-19-2021,10-11-2,76,depth_duration_stimuli/000735_2014-06-08_18-23-50_260595134347_rgbf000163-resize_2/000735_2014-06-08_18-23-50_260595134347_rgbf000163-resize_2-target.png,500,4.1695,0.564179104477612,42225,501,meters,1036210,1351972,35.0
652,846649,DepthScenes,duration_manipulation,aj,http://54.165.233.113/DepthDuration/depth_duration_Mturk/DepthDuration_HTML.html#39,39,1366,768,1366,768,2-19-2021,10-11-2,77,depth_duration_stimuli/002209_2014-06-28_18-36-10_260595134347_rgbf000051-resize_1/002209_2014-06-28_18-36-10_260595134347_rgbf000051-resize_1-target.png,500,2.057,0.9402985074626866,2033,500,meters,1036210,1351972,35.0
654,846649,DepthScenes,duration_manipulation,aj,http://54.165.233.113/DepthDuration/depth_duration_Mturk/DepthDuration_HTML.html#39,39,1366,768,1366,768,2-19-2021,10-11-2,79,depth_duration_stimuli/001167_2014-06-17_15-38-07_260595134347_rgbf000108-resize_0/001167_2014-06-17_15-38-07_260595134347_rgbf000108-resize_0-target.png,500,1.8505,0.7522388059701492,1730,500,meters,1036210,1351972,35.0
655,846649,DepthScenes,duration_manipulation,aj,http://54.165.233.113/DepthDuration/depth_duration_Mturk/DepthDuration_HTML.html#39,39,1366,768,1366,768,2-19-2021,10-11-2,80,depth_duration_stimuli/002763_2014-06-22_19-13-10_094959634447_rgbf000075-resize_4/002763_2014-06-22_19-13-10_094959634447_rgbf000075-resize_4-target.png,500,1.68375,0.9402985074626866,1636,500,meters,1036210,1351972,35.0
662,846649,DepthScenes,duration_manipulation,aj,http://54.165.233.113/DepthDuration/depth_duration_Mturk/DepthDuration_HTML.html#39,39,1366,768,1366,768,2-19-2021,10-11-2,87,depth_duration_stimuli/001150_2014-06-17_15-27-34_260595134347_rgbf000108-resize_2/001150_2014-06-17_15-27-34_260595134347_rgbf000108-resize_2-target.png,500,4.0325,1.3164179104477614,2426,500,meters,1036210,1351972,35.0
664,846649,DepthScenes,duration_manipulation,aj,http://54.165.233.113/DepthDuration/depth_duration_Mturk/DepthDuration_HTML.html#39,39,1366,768,1366,768,2-19-2021,10-11-2,89,depth_duration_stimuli/000522_2014-06-08_13-35-06_260595134347_rgbf000244-resize_1/000522_2014-06-08_13-35-06_260595134347_rgbf000244-resize_1-target.png,500,2.3715,0.9402985074626866,1642,500,meters,1036210,1351972,35.0
669,846649,DepthScenes,duration_manipulation,aj,http://54.165.233.113/DepthDuration/depth_duration_Mturk/DepthDuration_HTML.html#39,39,1366,768,1366,768,2-19-2021,10-11-2,94,depth_duration_stimuli/000137_2014-05-20_17-04-49_260595134347_rgbf000120-resize_1/000137_2014-05-20_17-04-49_260595134347_rgbf000120-resize_1-target.png,500,3.786,1.3164179104477614,2025,499,meters,1036210,1351972,35.0
673,846649,DepthScenes,duration_manipulation,aj,http://54.165.233.113/DepthDuration/depth_duration_Mturk/DepthDuration_HTML.html#39,39,1366,768,1366,768,2-19-2021,10-11-2,98,depth_duration_stimuli/000521_2014-06-08_13-34-35_260595134347_rgbf000191-resize_2/000521_2014-06-08_13-34-35_260595134347_rgbf000191-resize_2-target.png,500,3.0385,0.9402985074626866,1787,500,meters,1036210,1351972,35.0
674,846649,DepthScenes,duration_manipulation,aj,http://54.165.233.113/DepthDuration/depth_duration_Mturk/DepthDuration_HTML.html#39,39,1366,768,1366,768,2-19-2021,10-11-2,99,depth_duration_stimuli/002657_2014-06-13_15-29-54_094959634447_rgbf000150-resize_1/002657_2014-06-13_15-29-54_094959634447_rgbf000150-resize_1-target.png,500,4.919,1.128358208955224,1739,499,meters,1036210,1351972,35.0
678,846649,DepthScenes,duration_manipulation,aj,http://54.165.233.113/DepthDuration/depth_duration_Mturk/DepthDuration_HTML.html#39,39,1366,768,1366,768,2-19-2021,10-11-2,103,depth_duration_stimuli/001450_2014-06-19_17-02-03_260595134347_rgbf000203-resize_4/001450_2014-06-19_17-02-03_260595134347_rgbf000203-resize_4-target.png,500,4.0106666666667,0.9402985074626866,1990,497,meters,1036210,1351972,35.0
680,846649,DepthScenes,duration_manipulation,aj,http://54.165.233.113/DepthDuration/depth_duration_Mturk/DepthDuration_HTML.html#39,39,1366,768,1366,768,2-19-2021,10-11-2,105,depth_duration_stimuli/003069_2014-06-15_14-57-50_094959634447_rgbf000150-resize_4/003069_2014-06-15_14-57-50_094959634447_rgbf000150-resize_4-target.png,500,4.208,0.9402985074626866,1688,498,meters,1036210,1351972,35.0
689,846649,DepthScenes,duration_manipulation,aj,http://54.165.233.113/DepthDuration/depth_duration_Mturk/DepthDuration_HTML.html#39,39,1366,768,1366,768,2-19-2021,10-11-2,114,depth_duration_stimuli/000788_2014-06-08_22-34-36_260595134347_rgbf000131-resize_1/000788_2014-06-08_22-34-36_260595134347_rgbf000131-resize_1-target.png,500,3.359,0.9402985074626866,2282,500,meters,1036210,1351972,35.0
691,846649,DepthScenes,duration_manipulation,aj,http://54.165.233.113/DepthDuration/depth_duration_Mturk/DepthDuration_HTML.html#39,39,1366,768,1366,768,2-19-2021,10-11-2,116,depth_duration_stimuli/002660_2014-06-13_15-44-18_094959634447_rgbf001878-resize_2/002660_2014-06-13_15-44-18_094959634447_rgbf001878-resize_2-target.png,500,3.576,0.9402985074626866,2330,500,meters,1036210,1351972,35.0
703,846649,DepthScenes,duration_manipulation,aj,http://54.165.233.113/DepthDuration/depth_duration_Mturk/DepthDuration_HTML.html#39,39,1366,768,1366,768,2-19-2021,10-11-2,128,depth_duration_stimuli/003079_2014-06-15_15-18-20_094959634447_rgbf000152-resize_8/003079_2014-06-15_15-18-20_094959634447_rgbf000152-resize_8-target.png,500,2.8775,1.128358208955224,2146,500,meters,1036210,1351972,35.0
705,846649,DepthScenes,duration_manipulation,aj,http://54.165.233.113/DepthDuration/depth_duration_Mturk/DepthDuration_HTML.html#39,39,1366,768,1366,768,2-19-2021,10-11-2,130,depth_duration_stimuli/000368_2014-06-09_15-53-01_260595134347_rgbf000155-resize_2/000368_2014-06-09_15-53-01_260595134347_rgbf000155-resize_2-target.png,500,2.4859999999999998,0.9402985074626866,1754,500,meters,1036210,1351972,35.0
706,846649,DepthScenes,duration_manipulation,aj,http://54.165.233.113/DepthDuration/depth_duration_Mturk/DepthDuration_HTML.html#39,39,1366,768,1366,768,2-19-2021,10-11-2,131,depth_duration_stimuli/000943_2014-06-09_19-31-07_260595134347_rgbf000128-resize_1/000943_2014-06-09_19-31-07_260595134347_rgbf000128-resize_1-target.png,500,1.9765,0.7522388059701492,2108,501,meters,1036210,1351972,35.0
711,846649,DepthScenes,duration_manipulation,aj,http://54.165.233.113/DepthDuration/depth_duration_Mturk/DepthDuration_HTML.html#39,39,1366,768,1366,768,2-19-2021,10-11-2,136,depth_duration_stimuli/002949_2014-06-26_15-57-42_094959634447_rgbf000079-resize_1/002949_2014-06-26_15-57-42_094959634447_rgbf000079-resize_1-target.png,500,1.8915,0.9402985074626866,1786,500,meters,1036210,1351972,35.0
715,846649,DepthScenes,duration_manipulation,aj,http://54.165.233.113/DepthDuration/depth_duration_Mturk/DepthDuration_HTML.html#39,39,1366,768,1366,768,2-19-2021,10-11-2,140,depth_duration_stimuli/000642_2014-06-08_16-59-25_260595134347_rgbf000098-resize_2/000642_2014-06-08_16-59-25_260595134347_rgbf000098-resize_2-target.png,500,2.8815,0.9402985074626866,1659,500,meters,1036210,1351972,35.0
718,846649,DepthScenes,duration_manipulation,aj,http://54.165.233.113/DepthDuration/depth_duration_Mturk/DepthDuration_HTML.html#39,39,1366,768,1366,768,2-19-2021,10-11-2,143,depth_duration_stimuli/000555_2014-06-09_22-42-23_260595134347_rgbf000037-resize_4/000555_2014-06-09_22-42-23_260595134347_rgbf000037-resize_4-target.png,500,1.9765,0.9402985074626866,1667,500,meters,1036210,1351972,35.0
723,846649,DepthScenes,duration_manipulation,aj,http://54.165.233.113/DepthDuration/depth_duration_Mturk/DepthDuration_HTML.html#39,39,1366,768,1366,768,2-19-2021,10-11-2,148,depth_duration_stimuli/000682_2014-06-08_23-14-58_260595134347_rgbf000041-resize_5/000682_2014-06-08_23-14-58_260595134347_rgbf000041-resize_5-target.png,500,2.7239999999999998,0.9402985074626866,1825,499,meters,1036210,1351972,35.0
726,846649,DepthScenes,duration_manipulation,aj,http://54.165.233.113/DepthDuration/depth_duration_Mturk/DepthDuration_HTML.html#39,39,1366,768,1366,768,2-19-2021,10-11-2,151,depth_duration_stimuli/001532_2014-06-20_16-50-41_260595134347_rgbf000081-resize_4/001532_2014-06-20_16-50-41_260595134347_rgbf000081-resize_4-target.png,500,1.5758333333333001,0.3761194029850746,1818,500,meters,1036210,1351972,35.0
729,846649,DepthScenes,duration_manipulation,aj,http://54.165.233.113/DepthDuration/depth_duration_Mturk/DepthDuration_HTML.html#39,39,1366,768,1366,768,2-19-2021,10-11-2,154,depth_duration_stimuli/002118_2014-06-25_20-32-08_260595134347_rgbf000078-resize_1/002118_2014-06-25_20-32-08_260595134347_rgbf000078-resize_1-target.png,500,2.6460000000000004,1.128358208955224,1882,501,meters,1036210,1351972,35.0
730,846649,DepthScenes,duration_manipulation,aj,http://54.165.233.113/DepthDuration/depth_duration_Mturk/DepthDuration_HTML.html#39,39,1366,768,1366,768,2-19-2021,10-11-2,155,depth_duration_stimuli/002545_2014-06-24_13-38-53_094959634447_rgbf000080-resize_4/002545_2014-06-24_13-38-53_094959634447_rgbf000080-resize_4-target.png,500,1.9205,1.3164179104477614,1809,500,meters,1036210,1351972,35.0
732,846649,DepthScenes,duration_manipulation,aj,http://54.165.233.113/DepthDuration/depth_duration_Mturk/DepthDuration_HTML.html#39,39,1366,768,1366,768,2-19-2021,10-11-2,157,depth_duration_stimuli/001052_2014-06-08_18-24-54_260595134347_rgbf000130-resize_1/001052_2014-06-08_18-24-54_260595134347_rgbf000130-resize_1-target.png,500,4.1045,0.9402985074626866,1873,500,meters,1036210,1351972,35.0
738,846649,DepthScenes,duration_manipulation,aj,http://54.165.233.113/DepthDuration/depth_duration_Mturk/DepthDuration_HTML.html#39,39,1366,768,1366,768,2-19-2021,10-11-2,163,depth_duration_stimuli/002039_2014-06-24_20-22-38_260595134347_rgbf000084-resize_1/002039_2014-06-24_20-22-38_260595134347_rgbf000084-resize_1-target.png,500,4.408,1.3164179104477614,2337,500,meters,1036210,1351972,35.0
739,846649,DepthScenes,duration_manipulation,aj,http://54.165.233.113/DepthDuration/depth_duration_Mturk/DepthDuration_HTML.html#39,39,1366,768,1366,768,2-19-2021,10-11-2,164,depth_duration_stimuli/002139_2014-06-25_21-19-37_260595134347_rgbf000124-resize_2/002139_2014-06-25_21-19-37_260595134347_rgbf000124-resize_2-target.png,500,2.1069999999999998,0.3761194029850746,1817,500,meters,1036210,1351972,35.0
742,846649,DepthScenes,duration_manipulation,aj,http://54.165.233.113/DepthDuration/depth_duration_Mturk/DepthDuration_HTML.html#39,39,1366,768,1366,768,2-19-2021,10-11-2,167,depth_duration_stimuli/001032_2014-06-08_13-23-17_260595134347_rgbf000021-resize_3/001032_2014-06-08_13-23-17_260595134347_rgbf000021-resize_3-target.png,500,3.2725,0.3761194029850746,5194,500,meters,1036210,1351972,35.0
743,846649,DepthScenes,duration_manipulation,aj,http://54.165.233.113/DepthDuration/depth_duration_Mturk/DepthDuration_HTML.html#39,39,1366,768,1366,768,2-19-2021,10-11-2,168,depth_duration_stimuli/002509_2014-06-24_13-19-22_094959634447_rgbf000077-resize_0/002509_2014-06-24_13-19-22_094959634447_rgbf000077-resize_0-target.png,500,1.3065,0.564179104477612,4323,500,meters,1036210,1351972,35.0
746,846649,DepthScenes,duration_manipulation,aj,http://54.165.233.113/DepthDuration/depth_duration_Mturk/DepthDuration_HTML.html#39,39,1366,768,1366,768,2-19-2021,10-11-2,171,depth_duration_stimuli/003288_2014-05-14_21-50-30_094959634447_rgbf000028-resize_3/003288_2014-05-14_21-50-30_094959634447_rgbf000028-resize_3-target.png,500,3.877,0.9402985074626866,2482,500,meters,1036210,1351972,35.0
756,846649,DepthScenes,duration_manipulation,aj,http://54.165.233.113/DepthDuration/depth_duration_Mturk/DepthDuration_HTML.html#39,39,1366,768,1366,768,2-19-2021,10-11-2,181,depth_duration_stimuli/000780_2014-06-08_22-28-29_260595134347_rgbf000126-resize_1/000780_2014-06-08_22-28-29_260595134347_rgbf000126-resize_1-target.png,500,3.3825,1.128358208955224,3109,479,meters,1036210,1351972,35.0
767,846649,DepthScenes,duration_manipulation,aj,http://54.165.233.113/DepthDuration/depth_duration_Mturk/DepthDuration_HTML.html#39,39,1366,768,1366,768,2-19-2021,10-11-2,192,depth_duration_stimuli/000556_2014-06-09_22-42-56_260595134347_rgbf000214-resize_1/000556_2014-06-09_22-42-56_260595134347_rgbf000214-resize_1-target.png,500,4.8415,0.3761194029850746,3770,500,meters,1036210,1351972,35.0
769,319259,DepthScenes,duration_manipulation,ak,http://54.165.233.113/DepthDuration/depth_duration_Mturk/DepthDuration_HTML.html#43,43,1920,1007,1920,1080,2-19-2021,10-11-5,2,depth_duration_stimuli/003292_2014-05-14_21-53-49_094959634447_rgbf000100-resize_2/003292_2014-05-14_21-53-49_094959634447_rgbf000100-resize_2-target.png,500,3.4815,0.769230769230769,2411,500,feet,654257,693304,30.0
770,319259,DepthScenes,duration_manipulation,ak,http://54.165.233.113/DepthDuration/depth_duration_Mturk/DepthDuration_HTML.html#43,43,1920,1007,1920,1080,2-19-2021,10-11-5,3,depth_duration_stimuli/002460_2014-06-28_20-35-43_260595134347_rgbf000028-resize_4/002460_2014-06-28_20-35-43_260595134347_rgbf000028-resize_4-target.png,500,2.269,0.46153846153846145,2721,500,feet,654257,693304,30.0
772,319259,DepthScenes,duration_manipulation,ak,http://54.165.233.113/DepthDuration/depth_duration_Mturk/DepthDuration_HTML.html#43,43,1920,1007,1920,1080,2-19-2021,10-11-5,5,depth_duration_stimuli/002509_2014-06-24_13-19-22_094959634447_rgbf000077-resize_0/002509_2014-06-24_13-19-22_094959634447_rgbf000077-resize_0-target.png,500,1.3065,0.30769230769230765,2273,500,feet,654257,693304,30.0
782,319259,DepthScenes,duration_manipulation,ak,http://54.165.233.113/DepthDuration/depth_duration_Mturk/DepthDuration_HTML.html#43,43,1920,1007,1920,1080,2-19-2021,10-11-5,15,depth_duration_stimuli/003070_2014-06-15_14-58-27_094959634447_rgbf000150-resize_3/003070_2014-06-15_14-58-27_094959634447_rgbf000150-resize_3-target.png,500,2.9415,1.538461538461538,2250,500,feet,654257,693304,30.0
783,319259,DepthScenes,duration_manipulation,ak,http://54.165.233.113/DepthDuration/depth_duration_Mturk/DepthDuration_HTML.html#43,43,1920,1007,1920,1080,2-19-2021,10-11-5,16,depth_duration_stimuli/000906_2014-06-08_13-35-43_260595134347_rgbf000155-resize_1/000906_2014-06-08_13-35-43_260595134347_rgbf000155-resize_1-target.png,500,2.8489999999999998,2.307692307692307,2394,500,feet,654257,693304,30.0
785,319259,DepthScenes,duration_manipulation,ak,http://54.165.233.113/DepthDuration/depth_duration_Mturk/DepthDuration_HTML.html#43,43,1920,1007,1920,1080,2-19-2021,10-11-5,18,depth_duration_stimuli/000692_2014-06-08_13-09-42_260595134347_rgbf000199-resize_2/000692_2014-06-08_13-09-42_260595134347_rgbf000199-resize_2-target.png,500,3.661,3.384615384615384,2372,500,feet,654257,693304,30.0
788,319259,DepthScenes,duration_manipulation,ak,http://54.165.233.113/DepthDuration/depth_duration_Mturk/DepthDuration_HTML.html#43,43,1920,1007,1920,1080,2-19-2021,10-11-5,21,depth_duration_stimuli/001094_2014-06-15_17-36-00_260595134347_rgbf000205-resize_0/001094_2014-06-15_17-36-00_260595134347_rgbf000205-resize_0-target.png,500,4.2175,2.4615384615384612,3619,500,feet,654257,693304,30.0
789,319259,DepthScenes,duration_manipulation,ak,http://54.165.233.113/DepthDuration/depth_duration_Mturk/DepthDuration_HTML.html#43,43,1920,1007,1920,1080,2-19-2021,10-11-5,22,depth_duration_stimuli/001136_2014-06-17_15-19-41_260595134347_rgbf000076-resize_3/001136_2014-06-17_15-19-41_260595134347_rgbf000076-resize_3-target.png,500,1.8655,0.6153846153846153,2211,499,feet,654257,693304,30.0
796,319259,DepthScenes,duration_manipulation,ak,http://54.165.233.113/DepthDuration/depth_duration_Mturk/DepthDuration_HTML.html#43,43,1920,1007,1920,1080,2-19-2021,10-11-5,29,depth_duration_stimuli/000917_2014-06-09_22-45-29_260595134347_rgbf000149-resize_3/000917_2014-06-09_22-45-29_260595134347_rgbf000149-resize_3-target.png,500,4.1865,0.9230769230769229,2354,499,feet,654257,693304,30.0
799,319259,DepthScenes,duration_manipulation,ak,http://54.165.233.113/DepthDuration/depth_duration_Mturk/DepthDuration_HTML.html#43,43,1920,1007,1920,1080,2-19-2021,10-11-5,32,depth_duration_stimuli/001392_2014-06-19_16-07-59_260595134347_rgbf000046-resize_1/001392_2014-06-19_16-07-59_260595134347_rgbf000046-resize_1-target.png,500,4.135,1.538461538461538,2219,501,feet,654257,693304,30.0
808,319259,DepthScenes,duration_manipulation,ak,http://54.165.233.113/DepthDuration/depth_duration_Mturk/DepthDuration_HTML.html#43,43,1920,1007,1920,1080,2-19-2021,10-11-5,41,depth_duration_stimuli/001650_2014-06-20_12-09-00_260595134347_rgbf000087-resize_3/001650_2014-06-20_12-09-00_260595134347_rgbf000087-resize_3-target.png,500,1.9505,0.15384615384615383,2092,500,feet,654257,693304,30.0
813,319259,DepthScenes,duration_manipulation,ak,http://54.165.233.113/DepthDuration/depth_duration_Mturk/DepthDuration_HTML.html#43,43,1920,1007,1920,1080,2-19-2021,10-11-5,46,depth_duration_stimuli/000739_2014-06-08_18-45-58_260595134347_rgbf000068-resize_1/000739_2014-06-08_18-45-58_260595134347_rgbf000068-resize_1-target.png,500,3.534,1.2307692307692306,2217,500,feet,654257,693304,30.0
819,319259,DepthScenes,duration_manipulation,ak,http://54.165.233.113/DepthDuration/depth_duration_Mturk/DepthDuration_HTML.html#43,43,1920,1007,1920,1080,2-19-2021,10-11-5,52,depth_duration_stimuli/000486_2014-06-09_20-47-20_260595134347_rgbf000143-resize_2/000486_2014-06-09_20-47-20_260595134347_rgbf000143-resize_2-target.png,500,4.8325,0.6153846153846153,2097,498,feet,654257,693304,30.0
824,319259,DepthScenes,duration_manipulation,ak,http://54.165.233.113/DepthDuration/depth_duration_Mturk/DepthDuration_HTML.html#43,43,1920,1007,1920,1080,2-19-2021,10-11-5,57,depth_duration_stimuli/002549_2014-06-24_13-41-39_094959634447_rgbf000022-resize_3/002549_2014-06-24_13-41-39_094959634447_rgbf000022-resize_3-target.png,500,1.476,0.30769230769230765,2458,501,feet,654257,693304,30.0
826,319259,DepthScenes,duration_manipulation,ak,http://54.165.233.113/DepthDuration/depth_duration_Mturk/DepthDuration_HTML.html#43,43,1920,1007,1920,1080,2-19-2021,10-11-5,59,depth_duration_stimuli/002995_2014-06-15_12-31-26_094959634447_rgbf000150-resize_1/002995_2014-06-15_12-31-26_094959634447_rgbf000150-resize_1-target.png,500,3.8360000000000003,1.538461538461538,2123,501,feet,654257,693304,30.0
830,319259,DepthScenes,duration_manipulation,ak,http://54.165.233.113/DepthDuration/depth_duration_Mturk/DepthDuration_HTML.html#43,43,1920,1007,1920,1080,2-19-2021,10-11-5,63,depth_duration_stimuli/002568_2014-06-24_13-59-21_094959634447_rgbf000062-resize_4/002568_2014-06-24_13-59-21_094959634447_rgbf000062-resize_4-target.png,500,3.015,0.769230769230769,3202,500,feet,654257,693304,30.0
834,319259,DepthScenes,duration_manipulation,ak,http://54.165.233.113/DepthDuration/depth_duration_Mturk/DepthDuration_HTML.html#43,43,1920,1007,1920,1080,2-19-2021,10-11-5,67,depth_duration_stimuli/000740_2014-06-08_18-46-23_260595134347_rgbf000049-resize_6/000740_2014-06-08_18-46-23_260595134347_rgbf000049-resize_6-target.png,500,1.6869999999999998,0.6153846153846153,2610,499,feet,654257,693304,30.0
842,319259,DepthScenes,duration_manipulation,ak,http://54.165.233.113/DepthDuration/depth_duration_Mturk/DepthDuration_HTML.html#43,43,1920,1007,1920,1080,2-19-2021,10-11-5,75,depth_duration_stimuli/001052_2014-06-08_18-24-54_260595134347_rgbf000130-resize_1/001052_2014-06-08_18-24-54_260595134347_rgbf000130-resize_1-target.png,500,4.1045,0.30769230769230765,2138,500,feet,654257,693304,30.0
847,319259,DepthScenes,duration_manipulation,ak,http://54.165.233.113/DepthDuration/depth_duration_Mturk/DepthDuration_HTML.html#43,43,1920,1007,1920,1080,2-19-2021,10-11-5,80,depth_duration_stimuli/003490_2014-05-21_15-50-11_094959634447_rgbf000101-resize_3/003490_2014-05-21_15-50-11_094959634447_rgbf000101-resize_3-target.png,500,3.6445,1.538461538461538,2179,500,feet,654257,693304,30.0
849,319259,DepthScenes,duration_manipulation,ak,http://54.165.233.113/DepthDuration/depth_duration_Mturk/DepthDuration_HTML.html#43,43,1920,1007,1920,1080,2-19-2021,10-11-5,82,depth_duration_stimuli/002905_2014-06-03_18-04-43_094959634447_rgbf000151-resize_2/002905_2014-06-03_18-04-43_094959634447_rgbf000151-resize_2-target.png,500,2.0295,0.6153846153846153,2787,499,feet,654257,693304,30.0
850,319259,DepthScenes,duration_manipulation,ak,http://54.165.233.113/DepthDuration/depth_duration_Mturk/DepthDuration_HTML.html#43,43,1920,1007,1920,1080,2-19-2021,10-11-5,83,depth_duration_stimuli/002305_2014-06-28_19-56-50_260595134347_rgbf000102-resize_7/002305_2014-06-28_19-56-50_260595134347_rgbf000102-resize_7-target.png,500,4.8725,1.538461538461538,5491,501,feet,654257,693304,30.0
855,319259,DepthScenes,duration_manipulation,ak,http://54.165.233.113/DepthDuration/depth_duration_Mturk/DepthDuration_HTML.html#43,43,1920,1007,1920,1080,2-19-2021,10-11-5,88,depth_duration_stimuli/000469_2014-06-09_19-42-10_260595134347_rgbf000081-resize_1/000469_2014-06-09_19-42-10_260595134347_rgbf000081-resize_1-target.png,500,1.652,0.6153846153846153,2795,500,feet,654257,693304,30.0
859,319259,DepthScenes,duration_manipulation,ak,http://54.165.233.113/DepthDuration/depth_duration_Mturk/DepthDuration_HTML.html#43,43,1920,1007,1920,1080,2-19-2021,10-11-5,92,depth_duration_stimuli/000800_2014-06-08_22-42-09_260595134347_rgbf000095-resize_3/000800_2014-06-08_22-42-09_260595134347_rgbf000095-resize_3-target.png,500,2.8,0.9230769230769229,2123,500,feet,654257,693304,30.0
868,319259,DepthScenes,duration_manipulation,ak,http://54.165.233.113/DepthDuration/depth_duration_Mturk/DepthDuration_HTML.html#43,43,1920,1007,1920,1080,2-19-2021,10-11-5,101,depth_duration_stimuli/002784_2014-06-22_19-26-30_094959634447_rgbf000083-resize_3/002784_2014-06-22_19-26-30_094959634447_rgbf000083-resize_3-target.png,500,1.8046666666667,0.6153846153846153,2264,500,feet,654257,693304,30.0
869,319259,DepthScenes,duration_manipulation,ak,http://54.165.233.113/DepthDuration/depth_duration_Mturk/DepthDuration_HTML.html#43,43,1920,1007,1920,1080,2-19-2021,10-11-5,102,depth_duration_stimuli/002279_2014-06-28_18-55-32_260595134347_rgbf000040-resize_5/002279_2014-06-28_18-55-32_260595134347_rgbf000040-resize_5-target.png,500,1.5043333333333,0.46153846153846145,2179,499,feet,654257,693304,30.0
874,319259,DepthScenes,duration_manipulation,ak,http://54.165.233.113/DepthDuration/depth_duration_Mturk/DepthDuration_HTML.html#43,43,1920,1007,1920,1080,2-19-2021,10-11-5,107,depth_duration_stimuli/000830_2014-06-04_19-49-31_260595134347_rgbf000096-resize_2/000830_2014-06-04_19-49-31_260595134347_rgbf000096-resize_2-target.png,500,2.6353333333332998,0.769230769230769,2163,500,feet,654257,693304,30.0
875,319259,DepthScenes,duration_manipulation,ak,http://54.165.233.113/DepthDuration/depth_duration_Mturk/DepthDuration_HTML.html#43,43,1920,1007,1920,1080,2-19-2021,10-11-5,108,depth_duration_stimuli/000191_2014-05-12_17-07-38_260595134347_rgbf000199-resize_0/000191_2014-05-12_17-07-38_260595134347_rgbf000199-resize_0-target.png,500,3.7995,0.9230769230769229,2905,499,feet,654257,693304,30.0
879,319259,DepthScenes,duration_manipulation,ak,http://54.165.233.113/DepthDuration/depth_duration_Mturk/DepthDuration_HTML.html#43,43,1920,1007,1920,1080,2-19-2021,10-11-5,112,depth_duration_stimuli/001570_2014-06-20_17-21-09_260595134347_rgbf000135-resize_4/001570_2014-06-20_17-21-09_260595134347_rgbf000135-resize_4-target.png,500,4.467,1.538461538461538,2441,499,feet,654257,693304,30.0
887,319259,DepthScenes,duration_manipulation,ak,http://54.165.233.113/DepthDuration/depth_duration_Mturk/DepthDuration_HTML.html#43,43,1920,1007,1920,1080,2-19-2021,10-11-5,120,depth_duration_stimuli/002464_2014-06-28_20-36-57_260595134347_rgbf000029-resize_0/002464_2014-06-28_20-36-57_260595134347_rgbf000029-resize_0-target.png,500,3.9525,0.6153846153846153,2251,499,feet,654257,693304,30.0
898,319259,DepthScenes,duration_manipulation,ak,http://54.165.233.113/DepthDuration/depth_duration_Mturk/DepthDuration_HTML.html#43,43,1920,1007,1920,1080,2-19-2021,10-11-5,131,depth_duration_stimuli/001032_2014-06-08_13-23-17_260595134347_rgbf000021-resize_3/001032_2014-06-08_13-23-17_260595134347_rgbf000021-resize_3-target.png,500,3.2725,0.9230769230769229,2298,499,feet,654257,693304,30.0
899,319259,DepthScenes,duration_manipulation,ak,http://54.165.233.113/DepthDuration/depth_duration_Mturk/DepthDuration_HTML.html#43,43,1920,1007,1920,1080,2-19-2021,10-11-5,132,depth_duration_stimuli/001810_2014-06-26_20-51-35_260595134347_rgbf000040-resize_3/001810_2014-06-26_20-51-35_260595134347_rgbf000040-resize_3-target.png,500,2.2525,0.769230769230769,2194,500,feet,654257,693304,30.0
900,319259,DepthScenes,duration_manipulation,ak,http://54.165.233.113/DepthDuration/depth_duration_Mturk/DepthDuration_HTML.html#43,43,1920,1007,1920,1080,2-19-2021,10-11-5,133,depth_duration_stimuli/001808_2014-06-26_20-50-58_260595134347_rgbf000029-resize_1/001808_2014-06-26_20-50-58_260595134347_rgbf000029-resize_1-target.png,500,4.249,1.2307692307692306,2258,500,feet,654257,693304,30.0
906,319259,DepthScenes,duration_manipulation,ak,http://54.165.233.113/DepthDuration/depth_duration_Mturk/DepthDuration_HTML.html#43,43,1920,1007,1920,1080,2-19-2021,10-11-5,139,depth_duration_stimuli/000742_2014-06-08_18-48-09_260595134347_rgbf000164-resize_4/000742_2014-06-08_18-48-09_260595134347_rgbf000164-resize_4-target.png,500,4.632,1.538461538461538,2162,500,feet,654257,693304,30.0
908,319259,DepthScenes,duration_manipulation,ak,http://54.165.233.113/DepthDuration/depth_duration_Mturk/DepthDuration_HTML.html#43,43,1920,1007,1920,1080,2-19-2021,10-11-5,141,depth_duration_stimuli/001555_2014-06-20_17-12-10_260595134347_rgbf000065-resize_4/001555_2014-06-20_17-12-10_260595134347_rgbf000065-resize_4-target.png,500,1.633,0.30769230769230765,2339,501,feet,654257,693304,30.0
909,319259,DepthScenes,duration_manipulation,ak,http://54.165.233.113/DepthDuration/depth_duration_Mturk/DepthDuration_HTML.html#43,43,1920,1007,1920,1080,2-19-2021,10-11-5,142,depth_duration_stimuli/000682_2014-06-08_23-14-58_260595134347_rgbf000041-resize_5/000682_2014-06-08_23-14-58_260595134347_rgbf000041-resize_5-target.png,500,2.7239999999999998,0.9230769230769229,2051,500,feet,654257,693304,30.0
916,319259,DepthScenes,duration_manipulation,ak,http://54.165.233.113/DepthDuration/depth_duration_Mturk/DepthDuration_HTML.html#43,43,1920,1007,1920,1080,2-19-2021,10-11-5,149,depth_duration_stimuli/000470_2014-06-09_19-42-40_260595134347_rgbf000094-resize_1/000470_2014-06-09_19-42-40_260595134347_rgbf000094-resize_1-target.png,500,1.831,0.769230769230769,2409,499,feet,654257,693304,30.0
917,319259,DepthScenes,duration_manipulation,ak,http://54.165.233.113/DepthDuration/depth_duration_Mturk/DepthDuration_HTML.html#43,43,1920,1007,1920,1080,2-19-2021,10-11-5,150,depth_duration_stimuli/001059_2014-06-08_21-53-27_260595134347_rgbf000061-resize_4/001059_2014-06-08_21-53-27_260595134347_rgbf000061-resize_4-target.png,500,2.4185,0.9230769230769229,2131,500,feet,654257,693304,30.0
920,319259,DepthScenes,duration_manipulation,ak,http://54.165.233.113/DepthDuration/depth_duration_Mturk/DepthDuration_HTML.html#43,43,1920,1007,1920,1080,2-19-2021,10-11-5,153,depth_duration_stimuli/000758_2014-06-08_22-05-08_260595134347_rgbf000085-resize_0/000758_2014-06-08_22-05-08_260595134347_rgbf000085-resize_0-target.png,500,3.3810000000000002,1.2307692307692306,2115,501,feet,654257,693304,30.0
922,319259,DepthScenes,duration_manipulation,ak,http://54.165.233.113/DepthDuration/depth_duration_Mturk/DepthDuration_HTML.html#43,43,1920,1007,1920,1080,2-19-2021,10-11-5,155,depth_duration_stimuli/001029_2014-06-08_13-17-57_260595134347_rgbf000065-resize_1/001029_2014-06-08_13-17-57_260595134347_rgbf000065-resize_1-target.png,500,3.0835,1.2307692307692306,2555,500,feet,654257,693304,30.0
932,319259,DepthScenes,duration_manipulation,ak,http://54.165.233.113/DepthDuration/depth_duration_Mturk/DepthDuration_HTML.html#43,43,1920,1007,1920,1080,2-19-2021,10-11-5,165,depth_duration_stimuli/000506_2014-06-08_23-21-00_260595134347_rgbf000070-resize_7/000506_2014-06-08_23-21-00_260595134347_rgbf000070-resize_7-target.png,500,4.0585,1.538461538461538,2889,500,feet,654257,693304,30.0
934,319259,DepthScenes,duration_manipulation,ak,http://54.165.233.113/DepthDuration/depth_duration_Mturk/DepthDuration_HTML.html#43,43,1920,1007,1920,1080,2-19-2021,10-11-5,167,depth_duration_stimuli/002875_2014-06-01_15-19-00_094959634447_rgbf000151-resize_1/002875_2014-06-01_15-19-00_094959634447_rgbf000151-resize_1-target.png,500,1.9675,1.538461538461538,2403,500,feet,654257,693304,30.0
938,319259,DepthScenes,duration_manipulation,ak,http://54.165.233.113/DepthDuration/depth_duration_Mturk/DepthDuration_HTML.html#43,43,1920,1007,1920,1080,2-19-2021,10-11-5,171,depth_duration_stimuli/000368_2014-06-09_15-53-01_260595134347_rgbf000155-resize_2/000368_2014-06-09_15-53-01_260595134347_rgbf000155-resize_2-target.png,500,2.4859999999999998,0.9230769230769229,2466,501,feet,654257,693304,30.0
941,319259,DepthScenes,duration_manipulation,ak,http://54.165.233.113/DepthDuration/depth_duration_Mturk/DepthDuration_HTML.html#43,43,1920,1007,1920,1080,2-19-2021,10-11-5,174,depth_duration_stimuli/002414_2014-06-28_20-24-58_260595134347_rgbf000067-resize_4/002414_2014-06-28_20-24-58_260595134347_rgbf000067-resize_4-target.png,500,4.363,1.2307692307692306,2123,500,feet,654257,693304,30.0
942,319259,DepthScenes,duration_manipulation,ak,http://54.165.233.113/DepthDuration/depth_duration_Mturk/DepthDuration_HTML.html#43,43,1920,1007,1920,1080,2-19-2021,10-11-5,175,depth_duration_stimuli/000103_2014-05-14_22-01-17_260595134347_rgbf000152-resize_5/000103_2014-05-14_22-01-17_260595134347_rgbf000152-resize_5-target.png,500,1.993,1.2307692307692306,2114,500,feet,654257,693304,30.0
946,319259,DepthScenes,duration_manipulation,ak,http://54.165.233.113/DepthDuration/depth_duration_Mturk/DepthDuration_HTML.html#43,43,1920,1007,1920,1080,2-19-2021,10-11-5,179,depth_duration_stimuli/002725_2014-06-22_11-47-51_094959634447_rgbf000070-resize_1/002725_2014-06-22_11-47-51_094959634447_rgbf000070-resize_1-target.png,500,2.195,0.9230769230769229,2090,500,feet,654257,693304,30.0
950,319259,DepthScenes,duration_manipulation,ak,http://54.165.233.113/DepthDuration/depth_duration_Mturk/DepthDuration_HTML.html#43,43,1920,1007,1920,1080,2-19-2021,10-11-5,183,depth_duration_stimuli/003048_2014-06-15_13-49-43_094959634447_rgbf000150-resize_1/003048_2014-06-15_13-49-43_094959634447_rgbf000150-resize_1-target.png,500,4.0035,0.30769230769230765,2181,501,feet,654257,693304,30.0
955,319259,DepthScenes,duration_manipulation,ak,http://54.165.233.113/DepthDuration/depth_duration_Mturk/DepthDuration_HTML.html#43,43,1920,1007,1920,1080,2-19-2021,10-11-5,188,depth_duration_stimuli/001815_2014-06-26_20-52-55_260595134347_rgbf000020-resize_0/001815_2014-06-26_20-52-55_260595134347_rgbf000020-resize_0-target.png,500,3.3865,1.538461538461538,2938,500,feet,654257,693304,30.0
965,832052,DepthScenes,duration_manipulation,ac,http://54.165.233.113/DepthDuration/depth_duration_Mturk/DepthDuration_HTML.html#12,12,2560,937,2560,1080,2-19-2021,10-12-46,6,depth_duration_stimuli/000137_2014-05-20_17-04-49_260595134347_rgbf000120-resize_1/000137_2014-05-20_17-04-49_260595134347_rgbf000120-resize_1-target.png,500,3.786,1.1977624218492924,6093,500,feet,1009566,1132583,60.0
966,832052,DepthScenes,duration_manipulation,ac,http://54.165.233.113/DepthDuration/depth_duration_Mturk/DepthDuration_HTML.html#12,12,2560,937,2560,1080,2-19-2021,10-12-46,7,depth_duration_stimuli/003070_2014-06-15_14-58-27_094959634447_rgbf000150-resize_3/003070_2014-06-15_14-58-27_094959634447_rgbf000150-resize_3-target.png,500,2.9415,1.0180980585718986,5956,499,feet,1009566,1132583,60.0
970,832052,DepthScenes,duration_manipulation,ac,http://54.165.233.113/DepthDuration/depth_duration_Mturk/DepthDuration_HTML.html#12,12,2560,937,2560,1080,2-19-2021,10-12-46,11,depth_duration_stimuli/000878_2014-06-08_22-52-45_260595134347_rgbf000045-resize_2/000878_2014-06-08_22-52-45_260595134347_rgbf000045-resize_2-target.png,500,2.092,0.8384336952945046,5507,509,feet,1009566,1132583,60.0
971,832052,DepthScenes,duration_manipulation,ac,http://54.165.233.113/DepthDuration/depth_duration_Mturk/DepthDuration_HTML.html#12,12,2560,937,2560,1080,2-19-2021,10-12-46,12,depth_duration_stimuli/002875_2014-06-01_15-19-00_094959634447_rgbf000151-resize_1/002875_2014-06-01_15-19-00_094959634447_rgbf000151-resize_1-target.png,500,1.9675,0.5988812109246462,4115,499,feet,1009566,1132583,60.0
973,832052,DepthScenes,duration_manipulation,ac,http://54.165.233.113/DepthDuration/depth_duration_Mturk/DepthDuration_HTML.html#12,12,2560,937,2560,1080,2-19-2021,10-12-46,14,depth_duration_stimuli/001059_2014-06-08_21-53-27_260595134347_rgbf000061-resize_4/001059_2014-06-08_21-53-27_260595134347_rgbf000061-resize_4-target.png,500,2.4185,0.9582099374794338,3766,512,feet,1009566,1132583,60.0
975,832052,DepthScenes,duration_manipulation,ac,http://54.165.233.113/DepthDuration/depth_duration_Mturk/DepthDuration_HTML.html#12,12,2560,937,2560,1080,2-19-2021,10-12-46,16,depth_duration_stimuli/001066_2014-06-08_22-03-20_260595134347_rgbf000066-resize_4/001066_2014-06-08_22-03-20_260595134347_rgbf000066-resize_4-target.png,500,4.2330000000000005,1.7966436327739386,5276,508,feet,1009566,1132583,60.0
980,832052,DepthScenes,duration_manipulation,ac,http://54.165.233.113/DepthDuration/depth_duration_Mturk/DepthDuration_HTML.html#12,12,2560,937,2560,1080,2-19-2021,10-12-46,21,depth_duration_stimuli/001532_2014-06-20_16-50-41_260595134347_rgbf000081-resize_4/001532_2014-06-20_16-50-41_260595134347_rgbf000081-resize_4-target.png,500,1.5758333333333001,0.3593287265547877,3959,513,feet,1009566,1132583,60.0
985,832052,DepthScenes,duration_manipulation,ac,http://54.165.233.113/DepthDuration/depth_duration_Mturk/DepthDuration_HTML.html#12,12,2560,937,2560,1080,2-19-2021,10-12-46,26,depth_duration_stimuli/001094_2014-06-15_17-36-00_260595134347_rgbf000205-resize_0/001094_2014-06-15_17-36-00_260595134347_rgbf000205-resize_0-target.png,500,4.2175,1.1977624218492924,6011,501,feet,1009566,1132583,60.0
988,832052,DepthScenes,duration_manipulation,ac,http://54.165.233.113/DepthDuration/depth_duration_Mturk/DepthDuration_HTML.html#12,12,2560,937,2560,1080,2-19-2021,10-12-46,29,depth_duration_stimuli/000788_2014-06-08_22-34-36_260595134347_rgbf000131-resize_1/000788_2014-06-08_22-34-36_260595134347_rgbf000131-resize_1-target.png,500,3.359,1.5570911484040801,8468,499,feet,1009566,1132583,60.0
994,832052,DepthScenes,duration_manipulation,ac,http://54.165.233.113/DepthDuration/depth_duration_Mturk/DepthDuration_HTML.html#12,12,2560,937,2560,1080,2-19-2021,10-12-46,35,depth_duration_stimuli/002784_2014-06-22_19-26-30_094959634447_rgbf000083-resize_3/002784_2014-06-22_19-26-30_094959634447_rgbf000083-resize_3-target.png,500,1.8046666666667,0.7186574531095754,3959,514,feet,1009566,1132583,60.0
997,832052,DepthScenes,duration_manipulation,ac,http://54.165.233.113/DepthDuration/depth_duration_Mturk/DepthDuration_HTML.html#12,12,2560,937,2560,1080,2-19-2021,10-12-46,38,depth_duration_stimuli/001150_2014-06-17_15-27-34_260595134347_rgbf000108-resize_2/001150_2014-06-17_15-27-34_260595134347_rgbf000108-resize_2-target.png,500,4.0325,1.0779861796643633,3950,508,feet,1009566,1132583,60.0
1005,832052,DepthScenes,duration_manipulation,ac,http://54.165.233.113/DepthDuration/depth_duration_Mturk/DepthDuration_HTML.html#12,12,2560,937,2560,1080,2-19-2021,10-12-46,46,depth_duration_stimuli/000866_2014-06-09_20-45-42_260595134347_rgbf000139-resize_1/000866_2014-06-09_20-45-42_260595134347_rgbf000139-resize_1-target.png,500,3.2155,0.9582099374794338,6411,506,feet,1009566,1132583,60.0
1011,832052,DepthScenes,duration_manipulation,ac,http://54.165.233.113/DepthDuration/depth_duration_Mturk/DepthDuration_HTML.html#12,12,2560,937,2560,1080,2-19-2021,10-12-46,52,depth_duration_stimuli/000486_2014-06-09_20-47-20_260595134347_rgbf000143-resize_2/000486_2014-06-09_20-47-20_260595134347_rgbf000143-resize_2-target.png,500,4.8325,1.0779861796643633,3813,504,feet,1009566,1132583,60.0
1024,832052,DepthScenes,duration_manipulation,ac,http://54.165.233.113/DepthDuration/depth_duration_Mturk/DepthDuration_HTML.html#12,12,2560,937,2560,1080,2-19-2021,10-12-46,65,depth_duration_stimuli/000521_2014-06-08_13-34-35_260595134347_rgbf000191-resize_2/000521_2014-06-08_13-34-35_260595134347_rgbf000191-resize_2-target.png,500,3.0385,1.1977624218492924,6333,503,feet,1009566,1132583,60.0
1025,832052,DepthScenes,duration_manipulation,ac,http://54.165.233.113/DepthDuration/depth_duration_Mturk/DepthDuration_HTML.html#12,12,2560,937,2560,1080,2-19-2021,10-12-46,66,depth_duration_stimuli/000749_2014-06-08_21-55-06_260595134347_rgbf000070-resize_2/000749_2014-06-08_21-55-06_260595134347_rgbf000070-resize_2-target.png,500,2.331,0.8384336952945046,3794,512,feet,1009566,1132583,60.0
1028,832052,DepthScenes,duration_manipulation,ac,http://54.165.233.113/DepthDuration/depth_duration_Mturk/DepthDuration_HTML.html#12,12,2560,937,2560,1080,2-19-2021,10-12-46,69,depth_duration_stimuli/000740_2014-06-08_18-46-23_260595134347_rgbf000049-resize_6/000740_2014-06-08_18-46-23_260595134347_rgbf000049-resize_6-target.png,500,1.6869999999999998,0.7785455742020401,4317,513,feet,1009566,1132583,60.0
1032,832052,DepthScenes,duration_manipulation,ac,http://54.165.233.113/DepthDuration/depth_duration_Mturk/DepthDuration_HTML.html#12,12,2560,937,2560,1080,2-19-2021,10-12-46,73,depth_duration_stimuli/003292_2014-05-14_21-53-49_094959634447_rgbf000100-resize_2/003292_2014-05-14_21-53-49_094959634447_rgbf000100-resize_2-target.png,500,3.4815,0.9582099374794338,4453,506,feet,1009566,1132583,60.0
1034,832052,DepthScenes,duration_manipulation,ac,http://54.165.233.113/DepthDuration/depth_duration_Mturk/DepthDuration_HTML.html#12,12,2560,937,2560,1080,2-19-2021,10-12-46,75,depth_duration_stimuli/002445_2014-06-28_20-32-16_260595134347_rgbf000029-resize_4/002445_2014-06-28_20-32-16_260595134347_rgbf000029-resize_4-target.png,500,2.5315,0.8384336952945046,3929,505,feet,1009566,1132583,60.0
1040,832052,DepthScenes,duration_manipulation,ac,http://54.165.233.113/DepthDuration/depth_duration_Mturk/DepthDuration_HTML.html#12,12,2560,937,2560,1080,2-19-2021,10-12-46,81,depth_duration_stimuli/002375_2014-06-28_20-13-44_260595134347_rgbf000032-resize_1/002375_2014-06-28_20-13-44_260595134347_rgbf000032-resize_1-target.png,500,4.0175,0.8384336952945046,3737,515,feet,1009566,1132583,60.0
1041,832052,DepthScenes,duration_manipulation,ac,http://54.165.233.113/DepthDuration/depth_duration_Mturk/DepthDuration_HTML.html#12,12,2560,937,2560,1080,2-19-2021,10-12-46,82,depth_duration_stimuli/002545_2014-06-24_13-38-53_094959634447_rgbf000080-resize_4/002545_2014-06-24_13-38-53_094959634447_rgbf000080-resize_4-target.png,500,1.9205,0.9582099374794338,4809,504,feet,1009566,1132583,60.0
1046,832052,DepthScenes,duration_manipulation,ac,http://54.165.233.113/DepthDuration/depth_duration_Mturk/DepthDuration_HTML.html#12,12,2560,937,2560,1080,2-19-2021,10-12-46,87,depth_duration_stimuli/001810_2014-06-26_20-51-35_260595134347_rgbf000040-resize_3/001810_2014-06-26_20-51-35_260595134347_rgbf000040-resize_3-target.png,500,2.2525,0.5988812109246462,4077,505,feet,1009566,1132583,60.0
1049,832052,DepthScenes,duration_manipulation,ac,http://54.165.233.113/DepthDuration/depth_duration_Mturk/DepthDuration_HTML.html#12,12,2560,937,2560,1080,2-19-2021,10-12-46,90,depth_duration_stimuli/001570_2014-06-20_17-21-09_260595134347_rgbf000135-resize_4/001570_2014-06-20_17-21-09_260595134347_rgbf000135-resize_4-target.png,500,4.467,1.4373149062191508,3943,511,feet,1009566,1132583,60.0
1052,832052,DepthScenes,duration_manipulation,ac,http://54.165.233.113/DepthDuration/depth_duration_Mturk/DepthDuration_HTML.html#12,12,2560,937,2560,1080,2-19-2021,10-12-46,93,depth_duration_stimuli/000739_2014-06-08_18-45-58_260595134347_rgbf000068-resize_1/000739_2014-06-08_18-45-58_260595134347_rgbf000068-resize_1-target.png,500,3.534,0.9582099374794338,4632,511,feet,1009566,1132583,60.0
1053,832052,DepthScenes,duration_manipulation,ac,http://54.165.233.113/DepthDuration/depth_duration_Mturk/DepthDuration_HTML.html#12,12,2560,937,2560,1080,2-19-2021,10-12-46,94,depth_duration_stimuli/002637_2014-06-24_14-51-13_094959634447_rgbf000066-resize_4/002637_2014-06-24_14-51-13_094959634447_rgbf000066-resize_4-target.png,500,1.9955,0.7785455742020401,4355,501,feet,1009566,1132583,60.0
1066,832052,DepthScenes,duration_manipulation,ac,http://54.165.233.113/DepthDuration/depth_duration_Mturk/DepthDuration_HTML.html#12,12,2560,937,2560,1080,2-19-2021,10-12-46,107,depth_duration_stimuli/002949_2014-06-26_15-57-42_094959634447_rgbf000079-resize_1/002949_2014-06-26_15-57-42_094959634447_rgbf000079-resize_1-target.png,500,1.8915,0.5988812109246462,3496,504,feet,1009566,1132583,60.0
1072,832052,DepthScenes,duration_manipulation,ac,http://54.165.233.113/DepthDuration/depth_duration_Mturk/DepthDuration_HTML.html#12,12,2560,937,2560,1080,2-19-2021,10-12-46,113,depth_duration_stimuli/003490_2014-05-21_15-50-11_094959634447_rgbf000101-resize_3/003490_2014-05-21_15-50-11_094959634447_rgbf000101-resize_3-target.png,500,3.6445,1.0779861796643633,5329,512,feet,1009566,1132583,60.0
1073,832052,DepthScenes,duration_manipulation,ac,http://54.165.233.113/DepthDuration/depth_duration_Mturk/DepthDuration_HTML.html#12,12,2560,937,2560,1080,2-19-2021,10-12-46,114,depth_duration_stimuli/001447_2014-06-19_17-00-32_260595134347_rgbf000082-resize_5/001447_2014-06-19_17-00-32_260595134347_rgbf000082-resize_5-target.png,500,4.13775,0.7186574531095754,4595,511,feet,1009566,1132583,60.0
1077,832052,DepthScenes,duration_manipulation,ac,http://54.165.233.113/DepthDuration/depth_duration_Mturk/DepthDuration_HTML.html#12,12,2560,937,2560,1080,2-19-2021,10-12-46,118,depth_duration_stimuli/002549_2014-06-24_13-41-39_094959634447_rgbf000022-resize_3/002549_2014-06-24_13-41-39_094959634447_rgbf000022-resize_3-target.png,500,1.476,0.5389930898321816,4509,500,feet,1009566,1132583,60.0
1078,832052,DepthScenes,duration_manipulation,ac,http://54.165.233.113/DepthDuration/depth_duration_Mturk/DepthDuration_HTML.html#12,12,2560,937,2560,1080,2-19-2021,10-12-46,119,depth_duration_stimuli/002425_2014-06-28_20-27-29_260595134347_rgbf000031-resize_8/002425_2014-06-28_20-27-29_260595134347_rgbf000031-resize_8-target.png,500,3.8960000000000004,0.9582099374794338,3519,500,feet,1009566,1132583,60.0
1082,832052,DepthScenes,duration_manipulation,ac,http://54.165.233.113/DepthDuration/depth_duration_Mturk/DepthDuration_HTML.html#12,12,2560,937,2560,1080,2-19-2021,10-12-46,123,depth_duration_stimuli/001197_2014-06-17_16-01-50_260595134347_rgbf000103-resize_4/001197_2014-06-17_16-01-50_260595134347_rgbf000103-resize_4-target.png,500,3.4025,1.3175386640342217,4161,502,feet,1009566,1132583,60.0
1087,832052,DepthScenes,duration_manipulation,ac,http://54.165.233.113/DepthDuration/depth_duration_Mturk/DepthDuration_HTML.html#12,12,2560,937,2560,1080,2-19-2021,10-12-46,128,depth_duration_stimuli/000470_2014-06-09_19-42-40_260595134347_rgbf000094-resize_1/000470_2014-06-09_19-42-40_260595134347_rgbf000094-resize_1-target.png,500,1.831,0.5988812109246462,3552,512,feet,1009566,1132583,60.0
1090,832052,DepthScenes,duration_manipulation,ac,http://54.165.233.113/DepthDuration/depth_duration_Mturk/DepthDuration_HTML.html#12,12,2560,937,2560,1080,2-19-2021,10-12-46,131,depth_duration_stimuli/002209_2014-06-28_18-36-10_260595134347_rgbf000051-resize_1/002209_2014-06-28_18-36-10_260595134347_rgbf000051-resize_1-target.png,500,2.057,0.7186574531095754,3315,497,feet,1009566,1132583,60.0
1091,832052,DepthScenes,duration_manipulation,ac,http://54.165.233.113/DepthDuration/depth_duration_Mturk/DepthDuration_HTML.html#12,12,2560,937,2560,1080,2-19-2021,10-12-46,132,depth_duration_stimuli/000682_2014-06-08_23-14-58_260595134347_rgbf000041-resize_5/000682_2014-06-08_23-14-58_260595134347_rgbf000041-resize_5-target.png,500,2.7239999999999998,0.8384336952945046,4090,505,feet,1009566,1132583,60.0
1097,832052,DepthScenes,duration_manipulation,ac,http://54.165.233.113/DepthDuration/depth_duration_Mturk/DepthDuration_HTML.html#12,12,2560,937,2560,1080,2-19-2021,10-12-46,138,depth_duration_stimuli/001181_2014-06-17_15-50-57_260595134347_rgbf000106-resize_4/001181_2014-06-17_15-50-57_260595134347_rgbf000106-resize_4-target.png,500,4.149,1.6768673905890092,4293,500,feet,1009566,1132583,60.0
1100,832052,DepthScenes,duration_manipulation,ac,http://54.165.233.113/DepthDuration/depth_duration_Mturk/DepthDuration_HTML.html#12,12,2560,937,2560,1080,2-19-2021,10-12-46,141,depth_duration_stimuli/002118_2014-06-25_20-32-08_260595134347_rgbf000078-resize_1/002118_2014-06-25_20-32-08_260595134347_rgbf000078-resize_1-target.png,500,2.6460000000000004,0.9582099374794338,3984,505,feet,1009566,1132583,60.0
1104,832052,DepthScenes,duration_manipulation,ac,http://54.165.233.113/DepthDuration/depth_duration_Mturk/DepthDuration_HTML.html#12,12,2560,937,2560,1080,2-19-2021,10-12-46,145,depth_duration_stimuli/000692_2014-06-08_13-09-42_260595134347_rgbf000199-resize_2/000692_2014-06-08_13-09-42_260595134347_rgbf000199-resize_2-target.png,500,3.661,1.7966436327739386,6756,499,feet,1009566,1132583,60.0
1106,832052,DepthScenes,duration_manipulation,ac,http://54.165.233.113/DepthDuration/depth_duration_Mturk/DepthDuration_HTML.html#12,12,2560,937,2560,1080,2-19-2021,10-12-46,147,depth_duration_stimuli/002657_2014-06-13_15-29-54_094959634447_rgbf000150-resize_1/002657_2014-06-13_15-29-54_094959634447_rgbf000150-resize_1-target.png,500,4.919,1.5570911484040801,4252,501,feet,1009566,1132583,60.0
1109,832052,DepthScenes,duration_manipulation,ac,http://54.165.233.113/DepthDuration/depth_duration_Mturk/DepthDuration_HTML.html#12,12,2560,937,2560,1080,2-19-2021,10-12-46,150,depth_duration_stimuli/003288_2014-05-14_21-50-30_094959634447_rgbf000028-resize_3/003288_2014-05-14_21-50-30_094959634447_rgbf000028-resize_3-target.png,500,3.877,0.8384336952945046,3557,508,feet,1009566,1132583,60.0
1111,832052,DepthScenes,duration_manipulation,ac,http://54.165.233.113/DepthDuration/depth_duration_Mturk/DepthDuration_HTML.html#12,12,2560,937,2560,1080,2-19-2021,10-12-46,152,depth_duration_stimuli/001188_2014-06-17_15-54-10_260595134347_rgbf000090-resize_2/001188_2014-06-17_15-54-10_260595134347_rgbf000090-resize_2-target.png,500,2.7439999999999998,0.8384336952945046,5715,504,feet,1009566,1132583,60.0
1120,832052,DepthScenes,duration_manipulation,ac,http://54.165.233.113/DepthDuration/depth_duration_Mturk/DepthDuration_HTML.html#12,12,2560,937,2560,1080,2-19-2021,10-12-46,161,depth_duration_stimuli/001011_2014-06-08_23-18-54_260595134347_rgbf000044-resize_4/001011_2014-06-08_23-18-54_260595134347_rgbf000044-resize_4-target.png,500,2.4730000000000003,0.9582099374794338,4539,512,feet,1009566,1132583,60.0
1122,832052,DepthScenes,duration_manipulation,ac,http://54.165.233.113/DepthDuration/depth_duration_Mturk/DepthDuration_HTML.html#12,12,2560,937,2560,1080,2-19-2021,10-12-46,163,depth_duration_stimuli/002663_2014-06-13_15-50-26_094959634447_rgbf000075-resize_1/002663_2014-06-13_15-50-26_094959634447_rgbf000075-resize_1-target.png,500,4.7495,1.4373149062191508,3964,499,feet,1009566,1132583,60.0
1123,832052,DepthScenes,duration_manipulation,ac,http://54.165.233.113/DepthDuration/depth_duration_Mturk/DepthDuration_HTML.html#12,12,2560,937,2560,1080,2-19-2021,10-12-46,164,depth_duration_stimuli/003495_2014-05-21_16-01-51_094959634447_rgbf000100-resize_3/003495_2014-05-21_16-01-51_094959634447_rgbf000100-resize_3-target.png,500,1.6255,0.5988812109246462,3751,511,feet,1009566,1132583,60.0
1130,832052,DepthScenes,duration_manipulation,ac,http://54.165.233.113/DepthDuration/depth_duration_Mturk/DepthDuration_HTML.html#12,12,2560,937,2560,1080,2-19-2021,10-12-46,171,depth_duration_stimuli/002272_2014-06-28_18-53-56_260595134347_rgbf000067-resize_2/002272_2014-06-28_18-53-56_260595134347_rgbf000067-resize_2-target.png,500,1.138,0.4192168476472523,5166,514,feet,1009566,1132583,60.0
1142,832052,DepthScenes,duration_manipulation,ac,http://54.165.233.113/DepthDuration/depth_duration_Mturk/DepthDuration_HTML.html#12,12,2560,937,2560,1080,2-19-2021,10-12-46,183,depth_duration_stimuli/003092_2014-06-24_21-01-49_094959634447_rgbf000049-resize_2/003092_2014-06-24_21-01-49_094959634447_rgbf000049-resize_2-target.png,500,1.666,0.6587693320171109,4228,500,feet,1009566,1132583,60.0
1143,832052,DepthScenes,duration_manipulation,ac,http://54.165.233.113/DepthDuration/depth_duration_Mturk/DepthDuration_HTML.html#12,12,2560,937,2560,1080,2-19-2021,10-12-46,184,depth_duration_stimuli/003010_2014-06-15_12-54-35_094959634447_rgbf000112-resize_0/003010_2014-06-15_12-54-35_094959634447_rgbf000112-resize_0-target.png,500,3.1185,1.4373149062191508,4633,506,feet,1009566,1132583,60.0
1145,832052,DepthScenes,duration_manipulation,ac,http://54.165.233.113/DepthDuration/depth_duration_Mturk/DepthDuration_HTML.html#12,12,2560,937,2560,1080,2-19-2021,10-12-46,186,depth_duration_stimuli/003079_2014-06-15_15-18-20_094959634447_rgbf000152-resize_8/003079_2014-06-15_15-18-20_094959634447_rgbf000152-resize_8-target.png,500,2.8775,1.1977624218492924,4135,496,feet,1009566,1132583,60.0
1151,832052,DepthScenes,duration_manipulation,ac,http://54.165.233.113/DepthDuration/depth_duration_Mturk/DepthDuration_HTML.html#12,12,2560,937,2560,1080,2-19-2021,10-12-46,192,depth_duration_stimuli/001052_2014-06-08_18-24-54_260595134347_rgbf000130-resize_1/001052_2014-06-08_18-24-54_260595134347_rgbf000130-resize_1-target.png,500,4.1045,1.3175386640342217,4097,514,feet,1009566,1132583,60.0
1344,710719,DepthScenes,duration_manipulation,ar,http://54.165.233.113/DepthDuration/depth_duration_Mturk/DepthDuration_HTML.html#72,72,1920,937,1920,1080,2-19-2021,10-26-9,1,depth_duration_stimuli/000436_2014-06-09_22-25-11_260595134347_rgbf000137-resize_1/000436_2014-06-09_22-25-11_260595134347_rgbf000137-resize_1-target.png,500,4.0705,2.0273184759166067,3063,500,feet,732749,995931,39.0
1351,710719,DepthScenes,duration_manipulation,ar,http://54.165.233.113/DepthDuration/depth_duration_Mturk/DepthDuration_HTML.html#72,72,1920,937,1920,1080,2-19-2021,10-26-9,8,depth_duration_stimuli/003534_2014-05-22_15-06-10_094959634447_rgbf000102-resize_4/003534_2014-05-22_15-06-10_094959634447_rgbf000102-resize_4-target.png,500,1.426,0.5406182602444285,2116,499,feet,732749,995931,39.0
1357,710719,DepthScenes,duration_manipulation,ar,http://54.165.233.113/DepthDuration/depth_duration_Mturk/DepthDuration_HTML.html#72,72,1920,937,1920,1080,2-19-2021,10-26-9,14,depth_duration_stimuli/001056_2014-06-08_18-46-44_260595134347_rgbf000068-resize_0/001056_2014-06-08_18-46-44_260595134347_rgbf000068-resize_0-target.png,500,2.6625,1.081236520488857,2372,499,feet,732749,995931,39.0
1358,710719,DepthScenes,duration_manipulation,ar,http://54.165.233.113/DepthDuration/depth_duration_Mturk/DepthDuration_HTML.html#72,72,1920,937,1920,1080,2-19-2021,10-26-9,15,depth_duration_stimuli/001532_2014-06-20_16-50-41_260595134347_rgbf000081-resize_4/001532_2014-06-20_16-50-41_260595134347_rgbf000081-resize_4-target.png,500,1.5758333333333001,0.27030913012221425,2442,498,feet,732749,995931,39.0
1359,710719,DepthScenes,duration_manipulation,ar,http://54.165.233.113/DepthDuration/depth_duration_Mturk/DepthDuration_HTML.html#72,72,1920,937,1920,1080,2-19-2021,10-26-9,16,depth_duration_stimuli/003546_2014-05-22_15-48-53_094959634447_rgbf004816-resize_3/003546_2014-05-22_15-48-53_094959634447_rgbf004816-resize_3-target.png,500,2.62625,1.081236520488857,2630,500,feet,732749,995931,39.0
1360,710719,DepthScenes,duration_manipulation,ar,http://54.165.233.113/DepthDuration/depth_duration_Mturk/DepthDuration_HTML.html#72,72,1920,937,1920,1080,2-19-2021,10-26-9,17,depth_duration_stimuli/002305_2014-06-28_19-56-50_260595134347_rgbf000102-resize_7/002305_2014-06-28_19-56-50_260595134347_rgbf000102-resize_7-target.png,500,4.8725,2.432782171099928,2998,503,feet,732749,995931,39.0
1362,710719,DepthScenes,duration_manipulation,ar,http://54.165.233.113/DepthDuration/depth_duration_Mturk/DepthDuration_HTML.html#72,72,1920,937,1920,1080,2-19-2021,10-26-9,19,depth_duration_stimuli/002136_2014-06-25_21-18-03_260595134347_rgbf000109-resize_3/002136_2014-06-25_21-18-03_260595134347_rgbf000109-resize_3-target.png,500,1.9569999999999999,0.5406182602444285,2723,498,feet,732749,995931,39.0
1364,710719,DepthScenes,duration_manipulation,ar,http://54.165.233.113/DepthDuration/depth_duration_Mturk/DepthDuration_HTML.html#72,72,1920,937,1920,1080,2-19-2021,10-26-9,21,depth_duration_stimuli/001094_2014-06-15_17-36-00_260595134347_rgbf000205-resize_0/001094_2014-06-15_17-36-00_260595134347_rgbf000205-resize_0-target.png,500,4.2175,2.0273184759166067,2956,499,feet,732749,995931,39.0
1376,710719,DepthScenes,duration_manipulation,ar,http://54.165.233.113/DepthDuration/depth_duration_Mturk/DepthDuration_HTML.html#72,72,1920,937,1920,1080,2-19-2021,10-26-9,33,depth_duration_stimuli/000788_2014-06-08_22-34-36_260595134347_rgbf000131-resize_1/000788_2014-06-08_22-34-36_260595134347_rgbf000131-resize_1-target.png,500,3.359,1.081236520488857,3869,499,feet,732749,995931,39.0
1385,710719,DepthScenes,duration_manipulation,ar,http://54.165.233.113/DepthDuration/depth_duration_Mturk/DepthDuration_HTML.html#72,72,1920,937,1920,1080,2-19-2021,10-26-9,42,depth_duration_stimuli/001617_2014-06-20_11-35-32_260595134347_rgbf000066-resize_1/001617_2014-06-20_11-35-32_260595134347_rgbf000066-resize_1-target.png,500,3.7910000000000004,1.351545650611071,3771,501,feet,732749,995931,39.0
1390,710719,DepthScenes,duration_manipulation,ar,http://54.165.233.113/DepthDuration/depth_duration_Mturk/DepthDuration_HTML.html#72,72,1920,937,1920,1080,2-19-2021,10-26-9,47,depth_duration_stimuli/003621_2014-05-23_18-06-08_094959634447_rgbf000101-resize_1/003621_2014-05-23_18-06-08_094959634447_rgbf000101-resize_1-target.png,500,3.9835,1.351545650611071,3307,499,feet,732749,995931,39.0
1391,710719,DepthScenes,duration_manipulation,ar,http://54.165.233.113/DepthDuration/depth_duration_Mturk/DepthDuration_HTML.html#72,72,1920,937,1920,1080,2-19-2021,10-26-9,48,depth_duration_stimuli/002153_2014-06-25_21-27-18_260595134347_rgbf000038-resize_5/002153_2014-06-25_21-27-18_260595134347_rgbf000038-resize_5-target.png,500,2.505,0.8109273903666427,3071,500,feet,732749,995931,39.0
1398,710719,DepthScenes,duration_manipulation,ar,http://54.165.233.113/DepthDuration/depth_duration_Mturk/DepthDuration_HTML.html#72,72,1920,937,1920,1080,2-19-2021,10-26-9,55,depth_duration_stimuli/002209_2014-06-28_18-36-10_260595134347_rgbf000051-resize_1/002209_2014-06-28_18-36-10_260595134347_rgbf000051-resize_1-target.png,500,2.057,0.40546369518332137,2361,501,feet,732749,995931,39.0
1404,710719,DepthScenes,duration_manipulation,ar,http://54.165.233.113/DepthDuration/depth_duration_Mturk/DepthDuration_HTML.html#72,72,1920,937,1920,1080,2-19-2021,10-26-9,61,depth_duration_stimuli/000486_2014-06-09_20-47-20_260595134347_rgbf000143-resize_2/000486_2014-06-09_20-47-20_260595134347_rgbf000143-resize_2-target.png,500,4.8325,1.351545650611071,3318,500,feet,732749,995931,39.0
1405,710719,DepthScenes,duration_manipulation,ar,http://54.165.233.113/DepthDuration/depth_duration_Mturk/DepthDuration_HTML.html#72,72,1920,937,1920,1080,2-19-2021,10-26-9,62,depth_duration_stimuli/002545_2014-06-24_13-38-53_094959634447_rgbf000080-resize_4/002545_2014-06-24_13-38-53_094959634447_rgbf000080-resize_4-target.png,500,1.9205,0.8109273903666427,2599,500,feet,732749,995931,39.0
