,subjID,experimentName,versionName,sequenceName,url,selected_row,windowWidth,windowHeight,screenWidth,screenHeight,startDate,startTime,trial,stimulus,duration,actual_depth,depth_estimate,trial_RT,log_sceneDuration,unitSelection,experimentTime,totalTime,age
198,243745,DepthScenes,duration_manipulation,aw,http://54.165.233.113/DepthDuration/depth_duration_Mturk/DepthDuration_HTML.html#92,92,1024,768,1024,768,2-19-2021,10-10-37,7,depth_duration_stimuli/001056_2014-06-08_18-46-44_260595134347_rgbf000068-resize_0/001056_2014-06-08_18-46-44_260595134347_rgbf000068-resize_0-target.png,1000,2.6625,3.6576000000000004,3450,1000,feet,631587,777883,58.0
201,243745,DepthScenes,duration_manipulation,aw,http://54.165.233.113/DepthDuration/depth_duration_Mturk/DepthDuration_HTML.html#92,92,1024,768,1024,768,2-19-2021,10-10-37,10,depth_duration_stimuli/002637_2014-06-24_14-51-13_094959634447_rgbf000066-resize_4/002637_2014-06-24_14-51-13_094959634447_rgbf000066-resize_4-target.png,1000,1.9955,1.8288000000000002,4091,1000,feet,631587,777883,58.0
211,243745,DepthScenes,duration_manipulation,aw,http://54.165.233.113/DepthDuration/depth_duration_Mturk/DepthDuration_HTML.html#92,92,1024,768,1024,768,2-19-2021,10-10-37,20,depth_duration_stimuli/000720_2014-06-08_18-37-27_260595134347_rgbf000203-resize_4/000720_2014-06-08_18-37-27_260595134347_rgbf000203-resize_4-target.png,1000,1.558,1.524,2937,1000,feet,631587,777883,58.0
218,243745,DepthScenes,duration_manipulation,aw,http://54.165.233.113/DepthDuration/depth_duration_Mturk/DepthDuration_HTML.html#92,92,1024,768,1024,768,2-19-2021,10-10-37,27,depth_duration_stimuli/000447_2014-06-08_16-15-46_260595134347_rgbf000130-resize_1/000447_2014-06-08_16-15-46_260595134347_rgbf000130-resize_1-target.png,1000,4.479,5.1816,2874,1001,feet,631587,777883,58.0
222,243745,DepthScenes,duration_manipulation,aw,http://54.165.233.113/DepthDuration/depth_duration_Mturk/DepthDuration_HTML.html#92,92,1024,768,1024,768,2-19-2021,10-10-37,31,depth_duration_stimuli/001066_2014-06-08_22-03-20_260595134347_rgbf000066-resize_4/001066_2014-06-08_22-03-20_260595134347_rgbf000066-resize_4-target.png,1000,4.2330000000000005,7.62,2873,999,feet,631587,777883,58.0
226,243745,DepthScenes,duration_manipulation,aw,http://54.165.233.113/DepthDuration/depth_duration_Mturk/DepthDuration_HTML.html#92,92,1024,768,1024,768,2-19-2021,10-10-37,35,depth_duration_stimuli/002468_2014-06-28_20-38-39_260595134347_rgbf000045-resize_1/002468_2014-06-28_20-38-39_260595134347_rgbf000045-resize_1-target.png,1000,1.956,6.096,2682,1001,feet,631587,777883,58.0
227,243745,DepthScenes,duration_manipulation,aw,http://54.165.233.113/DepthDuration/depth_duration_Mturk/DepthDuration_HTML.html#92,92,1024,768,1024,768,2-19-2021,10-10-37,36,depth_duration_stimuli/001188_2014-06-17_15-54-10_260595134347_rgbf000090-resize_2/001188_2014-06-17_15-54-10_260595134347_rgbf000090-resize_2-target.png,1000,2.7439999999999998,3.048,2555,1000,feet,631587,777883,58.0
230,243745,DepthScenes,duration_manipulation,aw,http://54.165.233.113/DepthDuration/depth_duration_Mturk/DepthDuration_HTML.html#92,92,1024,768,1024,768,2-19-2021,10-10-37,39,depth_duration_stimuli/003081_2014-06-15_15-19-16_094959634447_rgbf000150-resize_1/003081_2014-06-15_15-19-16_094959634447_rgbf000150-resize_1-target.png,1000,3.9125,3.6576000000000004,2537,998,feet,631587,777883,58.0
231,243745,DepthScenes,duration_manipulation,aw,http://54.165.233.113/DepthDuration/depth_duration_Mturk/DepthDuration_HTML.html#92,92,1024,768,1024,768,2-19-2021,10-10-37,40,depth_duration_stimuli/001032_2014-06-08_13-23-17_260595134347_rgbf000021-resize_3/001032_2014-06-08_13-23-17_260595134347_rgbf000021-resize_3-target.png,1000,3.2725,2.4384,2922,999,feet,631587,777883,58.0
232,243745,DepthScenes,duration_manipulation,aw,http://54.165.233.113/DepthDuration/depth_duration_Mturk/DepthDuration_HTML.html#92,92,1024,768,1024,768,2-19-2021,10-10-37,41,depth_duration_stimuli/000773_2014-06-08_22-24-54_260595134347_rgbf000093-resize_1/000773_2014-06-08_22-24-54_260595134347_rgbf000093-resize_1-target.png,1000,4.973,5.1816,3177,1000,feet,631587,777883,58.0
236,243745,DepthScenes,duration_manipulation,aw,http://54.165.233.113/DepthDuration/depth_duration_Mturk/DepthDuration_HTML.html#92,92,1024,768,1024,768,2-19-2021,10-10-37,45,depth_duration_stimuli/000692_2014-06-08_13-09-42_260595134347_rgbf000199-resize_2/000692_2014-06-08_13-09-42_260595134347_rgbf000199-resize_2-target.png,1000,3.661,7.62,2475,1000,feet,631587,777883,58.0
240,243745,DepthScenes,duration_manipulation,aw,http://54.165.233.113/DepthDuration/depth_duration_Mturk/DepthDuration_HTML.html#92,92,1024,768,1024,768,2-19-2021,10-10-37,49,depth_duration_stimuli/001264_2014-06-16_16-10-23_260595134347_rgbf000109-resize_1/001264_2014-06-16_16-10-23_260595134347_rgbf000109-resize_1-target.png,1000,2.9665,3.3528000000000002,2875,1001,feet,631587,777883,58.0
255,243745,DepthScenes,duration_manipulation,aw,http://54.165.233.113/DepthDuration/depth_duration_Mturk/DepthDuration_HTML.html#92,92,1024,768,1024,768,2-19-2021,10-10-37,64,depth_duration_stimuli/000709_2014-06-08_13-51-55_260595134347_rgbf000068-resize_3/000709_2014-06-08_13-51-55_260595134347_rgbf000068-resize_3-target.png,1000,1.8030000000000002,1.8288000000000002,2713,1000,feet,631587,777883,58.0
257,243745,DepthScenes,duration_manipulation,aw,http://54.165.233.113/DepthDuration/depth_duration_Mturk/DepthDuration_HTML.html#92,92,1024,768,1024,768,2-19-2021,10-10-37,66,depth_duration_stimuli/002579_2014-06-24_14-08-03_094959634447_rgbf000061-resize_2/002579_2014-06-24_14-08-03_094959634447_rgbf000061-resize_2-target.png,1000,2.223125,1.524,3162,1000,feet,631587,777883,58.0
262,243745,DepthScenes,duration_manipulation,aw,http://54.165.233.113/DepthDuration/depth_duration_Mturk/DepthDuration_HTML.html#92,92,1024,768,1024,768,2-19-2021,10-10-37,71,depth_duration_stimuli/003048_2014-06-15_13-49-43_094959634447_rgbf000150-resize_1/003048_2014-06-15_13-49-43_094959634447_rgbf000150-resize_1-target.png,1000,4.0035,3.3528000000000002,2874,1000,feet,631587,777883,58.0
264,243745,DepthScenes,duration_manipulation,aw,http://54.165.233.113/DepthDuration/depth_duration_Mturk/DepthDuration_HTML.html#92,92,1024,768,1024,768,2-19-2021,10-10-37,73,depth_duration_stimuli/002790_2014-06-22_19-36-35_094959634447_rgbf000074-resize_4/002790_2014-06-22_19-36-35_094959634447_rgbf000074-resize_4-target.png,1000,3.512,3.048,3224,1001,feet,631587,777883,58.0
265,243745,DepthScenes,duration_manipulation,aw,http://54.165.233.113/DepthDuration/depth_duration_Mturk/DepthDuration_HTML.html#92,92,1024,768,1024,768,2-19-2021,10-10-37,74,depth_duration_stimuli/001724_2014-06-26_19-28-50_260595134347_rgbf000037-resize_7/001724_2014-06-26_19-28-50_260595134347_rgbf000037-resize_7-target.png,1000,3.827,6.096,5834,1000,feet,631587,777883,58.0
268,243745,DepthScenes,duration_manipulation,aw,http://54.165.233.113/DepthDuration/depth_duration_Mturk/DepthDuration_HTML.html#92,92,1024,768,1024,768,2-19-2021,10-10-37,77,depth_duration_stimuli/001617_2014-06-20_11-35-32_260595134347_rgbf000066-resize_1/001617_2014-06-20_11-35-32_260595134347_rgbf000066-resize_1-target.png,1000,3.7910000000000004,3.048,2587,1000,feet,631587,777883,58.0
273,243745,DepthScenes,duration_manipulation,aw,http://54.165.233.113/DepthDuration/depth_duration_Mturk/DepthDuration_HTML.html#92,92,1024,768,1024,768,2-19-2021,10-10-37,82,depth_duration_stimuli/000469_2014-06-09_19-42-10_260595134347_rgbf000081-resize_1/000469_2014-06-09_19-42-10_260595134347_rgbf000081-resize_1-target.png,1000,1.652,1.2192,2393,998,feet,631587,777883,58.0
274,243745,DepthScenes,duration_manipulation,aw,http://54.165.233.113/DepthDuration/depth_duration_Mturk/DepthDuration_HTML.html#92,92,1024,768,1024,768,2-19-2021,10-10-37,83,depth_duration_stimuli/003492_2014-05-21_15-50-55_094959634447_rgbf000828-resize_1/003492_2014-05-21_15-50-55_094959634447_rgbf000828-resize_1-target.png,1000,4.06875,4.2672,2888,1001,feet,631587,777883,58.0
276,243745,DepthScenes,duration_manipulation,aw,http://54.165.233.113/DepthDuration/depth_duration_Mturk/DepthDuration_HTML.html#92,92,1024,768,1024,768,2-19-2021,10-10-37,85,depth_duration_stimuli/001828_2014-06-26_21-40-03_260595134347_rgbf000024-resize_0/001828_2014-06-26_21-40-03_260595134347_rgbf000024-resize_0-target.png,1000,4.8260000000000005,5.7912,3257,1000,feet,631587,777883,58.0
281,243745,DepthScenes,duration_manipulation,aw,http://54.165.233.113/DepthDuration/depth_duration_Mturk/DepthDuration_HTML.html#92,92,1024,768,1024,768,2-19-2021,10-10-37,90,depth_duration_stimuli/002905_2014-06-03_18-04-43_094959634447_rgbf000151-resize_2/002905_2014-06-03_18-04-43_094959634447_rgbf000151-resize_2-target.png,1000,2.0295,1.524,2553,1000,feet,631587,777883,58.0
282,243745,DepthScenes,duration_manipulation,aw,http://54.165.233.113/DepthDuration/depth_duration_Mturk/DepthDuration_HTML.html#92,92,1024,768,1024,768,2-19-2021,10-10-37,91,depth_duration_stimuli/000483_2014-06-09_20-41-45_260595134347_rgbf000116-resize_4/000483_2014-06-09_20-41-45_260595134347_rgbf000116-resize_4-target.png,1000,1.337,0.9144000000000001,2523,1000,feet,631587,777883,58.0
291,243745,DepthScenes,duration_manipulation,aw,http://54.165.233.113/DepthDuration/depth_duration_Mturk/DepthDuration_HTML.html#92,92,1024,768,1024,768,2-19-2021,10-10-37,100,depth_duration_stimuli/002460_2014-06-28_20-35-43_260595134347_rgbf000028-resize_4/002460_2014-06-28_20-35-43_260595134347_rgbf000028-resize_4-target.png,1000,2.269,0.9144000000000001,2458,1001,feet,631587,777883,58.0
292,243745,DepthScenes,duration_manipulation,aw,http://54.165.233.113/DepthDuration/depth_duration_Mturk/DepthDuration_HTML.html#92,92,1024,768,1024,768,2-19-2021,10-10-37,101,depth_duration_stimuli/000691_2014-06-08_13-08-50_260595134347_rgbf000132-resize_3/000691_2014-06-08_13-08-50_260595134347_rgbf000132-resize_3-target.png,1000,4.1530000000000005,4.572,2745,1001,feet,631587,777883,58.0
298,243745,DepthScenes,duration_manipulation,aw,http://54.165.233.113/DepthDuration/depth_duration_Mturk/DepthDuration_HTML.html#92,92,1024,768,1024,768,2-19-2021,10-10-37,107,depth_duration_stimuli/001289_2014-06-16_16-25-52_260595134347_rgbf000067-resize_1/001289_2014-06-16_16-25-52_260595134347_rgbf000067-resize_1-target.png,1000,1.8835,1.8288000000000002,2491,1000,feet,631587,777883,58.0
300,243745,DepthScenes,duration_manipulation,aw,http://54.165.233.113/DepthDuration/depth_duration_Mturk/DepthDuration_HTML.html#92,92,1024,768,1024,768,2-19-2021,10-10-37,109,depth_duration_stimuli/000665_2014-06-09_20-42-35_260595134347_rgbf000110-resize_1/000665_2014-06-09_20-42-35_260595134347_rgbf000110-resize_1-target.png,1000,3.057,3.6576000000000004,3752,1000,feet,631587,777883,58.0
303,243745,DepthScenes,duration_manipulation,aw,http://54.165.233.113/DepthDuration/depth_duration_Mturk/DepthDuration_HTML.html#92,92,1024,768,1024,768,2-19-2021,10-10-37,112,depth_duration_stimuli/000502_2014-06-08_23-02-32_260595134347_rgbf000063-resize_4/000502_2014-06-08_23-02-32_260595134347_rgbf000063-resize_4-target.png,1000,2.431,2.4384,2634,1001,feet,631587,777883,58.0
304,243745,DepthScenes,duration_manipulation,aw,http://54.165.233.113/DepthDuration/depth_duration_Mturk/DepthDuration_HTML.html#92,92,1024,768,1024,768,2-19-2021,10-10-37,113,depth_duration_stimuli/000878_2014-06-08_22-52-45_260595134347_rgbf000045-resize_2/000878_2014-06-08_22-52-45_260595134347_rgbf000045-resize_2-target.png,1000,2.092,3.048,2714,1000,feet,631587,777883,58.0
308,243745,DepthScenes,duration_manipulation,aw,http://54.165.233.113/DepthDuration/depth_duration_Mturk/DepthDuration_HTML.html#92,92,1024,768,1024,768,2-19-2021,10-10-37,117,depth_duration_stimuli/001571_2014-06-20_17-21-32_260595134347_rgbf000089-resize_1/001571_2014-06-20_17-21-32_260595134347_rgbf000089-resize_1-target.png,1000,1.86,1.8288000000000002,2456,999,feet,631587,777883,58.0
313,243745,DepthScenes,duration_manipulation,aw,http://54.165.233.113/DepthDuration/depth_duration_Mturk/DepthDuration_HTML.html#92,92,1024,768,1024,768,2-19-2021,10-10-37,122,depth_duration_stimuli/000677_2014-06-08_23-10-32_260595134347_rgbf000158-resize_6/000677_2014-06-08_23-10-32_260595134347_rgbf000158-resize_6-target.png,1000,3.556,3.6576000000000004,2938,1001,feet,631587,777883,58.0
314,243745,DepthScenes,duration_manipulation,aw,http://54.165.233.113/DepthDuration/depth_duration_Mturk/DepthDuration_HTML.html#92,92,1024,768,1024,768,2-19-2021,10-10-37,123,depth_duration_stimuli/002875_2014-06-01_15-19-00_094959634447_rgbf000151-resize_1/002875_2014-06-01_15-19-00_094959634447_rgbf000151-resize_1-target.png,1000,1.9675,1.524,2539,1001,feet,631587,777883,58.0
317,243745,DepthScenes,duration_manipulation,aw,http://54.165.233.113/DepthDuration/depth_duration_Mturk/DepthDuration_HTML.html#92,92,1024,768,1024,768,2-19-2021,10-10-37,126,depth_duration_stimuli/000780_2014-06-08_22-28-29_260595134347_rgbf000126-resize_1/000780_2014-06-08_22-28-29_260595134347_rgbf000126-resize_1-target.png,1000,3.3825,3.6576000000000004,2650,1000,feet,631587,777883,58.0
320,243745,DepthScenes,duration_manipulation,aw,http://54.165.233.113/DepthDuration/depth_duration_Mturk/DepthDuration_HTML.html#92,92,1024,768,1024,768,2-19-2021,10-10-37,129,depth_duration_stimuli/003083_2014-06-15_15-21-03_094959634447_rgbf000063-resize_1/003083_2014-06-15_15-21-03_094959634447_rgbf000063-resize_1-target.png,1000,4.1405,6.096,3721,1000,feet,631587,777883,58.0
322,243745,DepthScenes,duration_manipulation,aw,http://54.165.233.113/DepthDuration/depth_duration_Mturk/DepthDuration_HTML.html#92,92,1024,768,1024,768,2-19-2021,10-10-37,131,depth_duration_stimuli/002570_2014-06-24_13-59-54_094959634447_rgbf000059-resize_0/002570_2014-06-24_13-59-54_094959634447_rgbf000059-resize_0-target.png,1000,4.037,3.6576000000000004,2729,1000,feet,631587,777883,58.0
337,243745,DepthScenes,duration_manipulation,aw,http://54.165.233.113/DepthDuration/depth_duration_Mturk/DepthDuration_HTML.html#92,92,1024,768,1024,768,2-19-2021,10-10-37,146,depth_duration_stimuli/003546_2014-05-22_15-48-53_094959634447_rgbf004816-resize_3/003546_2014-05-22_15-48-53_094959634447_rgbf004816-resize_3-target.png,1000,2.62625,2.1336,2502,998,feet,631587,777883,58.0
347,243745,DepthScenes,duration_manipulation,aw,http://54.165.233.113/DepthDuration/depth_duration_Mturk/DepthDuration_HTML.html#92,92,1024,768,1024,768,2-19-2021,10-10-37,156,depth_duration_stimuli/001133_2014-06-17_14-49-16_260595134347_rgbf000100-resize_0/001133_2014-06-17_14-49-16_260595134347_rgbf000100-resize_0-target.png,1000,4.2115,5.486400000000001,3325,1000,feet,631587,777883,58.0
349,243745,DepthScenes,duration_manipulation,aw,http://54.165.233.113/DepthDuration/depth_duration_Mturk/DepthDuration_HTML.html#92,92,1024,768,1024,768,2-19-2021,10-10-37,158,depth_duration_stimuli/001092_2014-06-15_17-34-58_260595134347_rgbf000171-resize_3/001092_2014-06-15_17-34-58_260595134347_rgbf000171-resize_3-target.png,1000,2.6935,2.1336,2664,1000,feet,631587,777883,58.0
350,243745,DepthScenes,duration_manipulation,aw,http://54.165.233.113/DepthDuration/depth_duration_Mturk/DepthDuration_HTML.html#92,92,1024,768,1024,768,2-19-2021,10-10-37,159,depth_duration_stimuli/002663_2014-06-13_15-50-26_094959634447_rgbf000075-resize_1/002663_2014-06-13_15-50-26_094959634447_rgbf000075-resize_1-target.png,1000,4.7495,4.572,2683,1001,feet,631587,777883,58.0
352,243745,DepthScenes,duration_manipulation,aw,http://54.165.233.113/DepthDuration/depth_duration_Mturk/DepthDuration_HTML.html#92,92,1024,768,1024,768,2-19-2021,10-10-37,161,depth_duration_stimuli/000810_2014-06-08_17-20-01_260595134347_rgbf000105-resize_0/000810_2014-06-08_17-20-01_260595134347_rgbf000105-resize_0-target.png,1000,1.4865,1.8288000000000002,2489,1000,feet,631587,777883,58.0
355,243745,DepthScenes,duration_manipulation,aw,http://54.165.233.113/DepthDuration/depth_duration_Mturk/DepthDuration_HTML.html#92,92,1024,768,1024,768,2-19-2021,10-10-37,164,depth_duration_stimuli/001110_2014-06-15_17-25-28_260595134347_rgbf000150-resize_1/001110_2014-06-15_17-25-28_260595134347_rgbf000150-resize_1-target.png,1000,1.7115,1.8288000000000002,2505,1000,feet,631587,777883,58.0
361,243745,DepthScenes,duration_manipulation,aw,http://54.165.233.113/DepthDuration/depth_duration_Mturk/DepthDuration_HTML.html#92,92,1024,768,1024,768,2-19-2021,10-10-37,170,depth_duration_stimuli/002444_2014-06-28_20-32-08_260595134347_rgbf000027-resize_0/002444_2014-06-28_20-32-08_260595134347_rgbf000027-resize_0-target.png,1000,4.388999999999999,6.096,2906,1000,feet,631587,777883,58.0
367,243745,DepthScenes,duration_manipulation,aw,http://54.165.233.113/DepthDuration/depth_duration_Mturk/DepthDuration_HTML.html#92,92,1024,768,1024,768,2-19-2021,10-10-37,176,depth_duration_stimuli/000542_2014-06-08_18-27-08_260595134347_rgbf000118-resize_1/000542_2014-06-08_18-27-08_260595134347_rgbf000118-resize_1-target.png,1000,3.0,3.6576000000000004,2923,1000,feet,631587,777883,58.0
376,243745,DepthScenes,duration_manipulation,aw,http://54.165.233.113/DepthDuration/depth_duration_Mturk/DepthDuration_HTML.html#92,92,1024,768,1024,768,2-19-2021,10-10-37,185,depth_duration_stimuli/003495_2014-05-21_16-01-51_094959634447_rgbf000100-resize_3/003495_2014-05-21_16-01-51_094959634447_rgbf000100-resize_3-target.png,1000,1.6255,1.2192,2459,1001,feet,631587,777883,58.0
378,243745,DepthScenes,duration_manipulation,aw,http://54.165.233.113/DepthDuration/depth_duration_Mturk/DepthDuration_HTML.html#92,92,1024,768,1024,768,2-19-2021,10-10-37,187,depth_duration_stimuli/003079_2014-06-15_15-18-20_094959634447_rgbf000152-resize_8/003079_2014-06-15_15-18-20_094959634447_rgbf000152-resize_8-target.png,1000,2.8775,3.048,3210,1000,feet,631587,777883,58.0
386,563901,DepthScenes,duration_manipulation,av,http://54.165.233.113/DepthDuration/depth_duration_Mturk/DepthDuration_HTML.html#87,87,1680,907,1680,1050,2-19-2021,10-11-20,3,depth_duration_stimuli/002953_2014-06-08_17-32-18_094959634447_rgbf000059-resize_5/002953_2014-06-08_17-32-18_094959634447_rgbf000059-resize_5-target.png,1000,1.551,0.9144000000000001,5650,1002,feet,1251830,1359344,56.0
388,563901,DepthScenes,duration_manipulation,av,http://54.165.233.113/DepthDuration/depth_duration_Mturk/DepthDuration_HTML.html#87,87,1680,907,1680,1050,2-19-2021,10-11-20,5,depth_duration_stimuli/000929_2014-06-09_16-33-19_260595134347_rgbf000139-resize_0/000929_2014-06-09_16-33-19_260595134347_rgbf000139-resize_0-target.png,1000,2.8680000000000003,1.524,6578,1002,feet,1251830,1359344,56.0
389,563901,DepthScenes,duration_manipulation,av,http://54.165.233.113/DepthDuration/depth_duration_Mturk/DepthDuration_HTML.html#87,87,1680,907,1680,1050,2-19-2021,10-11-20,6,depth_duration_stimuli/002365_2014-06-28_20-11-21_260595134347_rgbf000102-resize_1/002365_2014-06-28_20-11-21_260595134347_rgbf000102-resize_1-target.png,1000,4.013,3.048,7706,987,feet,1251830,1359344,56.0
402,563901,DepthScenes,duration_manipulation,av,http://54.165.233.113/DepthDuration/depth_duration_Mturk/DepthDuration_HTML.html#87,87,1680,907,1680,1050,2-19-2021,10-11-20,19,depth_duration_stimuli/002964_2014-06-08_17-46-11_094959634447_rgbf000091-resize_4/002964_2014-06-08_17-46-11_094959634447_rgbf000091-resize_4-target.png,1000,1.6909999999999998,1.2192,3850,996,feet,1251830,1359344,56.0
406,563901,DepthScenes,duration_manipulation,av,http://54.165.233.113/DepthDuration/depth_duration_Mturk/DepthDuration_HTML.html#87,87,1680,907,1680,1050,2-19-2021,10-11-20,23,depth_duration_stimuli/002213_2014-06-28_18-37-58_260595134347_rgbf000055-resize_1/002213_2014-06-28_18-37-58_260595134347_rgbf000055-resize_1-target.png,1000,3.62,2.4384,4618,993,feet,1251830,1359344,56.0
413,563901,DepthScenes,duration_manipulation,av,http://54.165.233.113/DepthDuration/depth_duration_Mturk/DepthDuration_HTML.html#87,87,1680,907,1680,1050,2-19-2021,10-11-20,30,depth_duration_stimuli/003081_2014-06-15_15-19-16_094959634447_rgbf000150-resize_1/003081_2014-06-15_15-19-16_094959634447_rgbf000150-resize_1-target.png,1000,3.9125,3.048,6892,993,feet,1251830,1359344,56.0
416,563901,DepthScenes,duration_manipulation,av,http://54.165.233.113/DepthDuration/depth_duration_Mturk/DepthDuration_HTML.html#87,87,1680,907,1680,1050,2-19-2021,10-11-20,33,depth_duration_stimuli/001584_2014-06-20_11-07-43_260595134347_rgbf000002-resize_1/001584_2014-06-20_11-07-43_260595134347_rgbf000002-resize_1-target.png,1000,3.53,1.8288000000000002,5868,1002,feet,1251830,1359344,56.0
420,563901,DepthScenes,duration_manipulation,av,http://54.165.233.113/DepthDuration/depth_duration_Mturk/DepthDuration_HTML.html#87,87,1680,907,1680,1050,2-19-2021,10-11-20,37,depth_duration_stimuli/003492_2014-05-21_15-50-55_094959634447_rgbf000828-resize_1/003492_2014-05-21_15-50-55_094959634447_rgbf000828-resize_1-target.png,1000,4.06875,3.048,7531,949,feet,1251830,1359344,56.0
421,563901,DepthScenes,duration_manipulation,av,http://54.165.233.113/DepthDuration/depth_duration_Mturk/DepthDuration_HTML.html#87,87,1680,907,1680,1050,2-19-2021,10-11-20,38,depth_duration_stimuli/000368_2014-06-09_15-53-01_260595134347_rgbf000155-resize_2/000368_2014-06-09_15-53-01_260595134347_rgbf000155-resize_2-target.png,1000,2.4859999999999998,1.524,6233,1002,feet,1251830,1359344,56.0
424,563901,DepthScenes,duration_manipulation,av,http://54.165.233.113/DepthDuration/depth_duration_Mturk/DepthDuration_HTML.html#87,87,1680,907,1680,1050,2-19-2021,10-11-20,41,depth_duration_stimuli/002414_2014-06-28_20-24-58_260595134347_rgbf000067-resize_4/002414_2014-06-28_20-24-58_260595134347_rgbf000067-resize_4-target.png,1000,4.363,3.048,5554,1009,feet,1251830,1359344,56.0
427,563901,DepthScenes,duration_manipulation,av,http://54.165.233.113/DepthDuration/depth_duration_Mturk/DepthDuration_HTML.html#87,87,1680,907,1680,1050,2-19-2021,10-11-20,44,depth_duration_stimuli/001289_2014-06-16_16-25-52_260595134347_rgbf000067-resize_1/001289_2014-06-16_16-25-52_260595134347_rgbf000067-resize_1-target.png,1000,1.8835,1.524,4561,1013,feet,1251830,1359344,56.0
429,563901,DepthScenes,duration_manipulation,av,http://54.165.233.113/DepthDuration/depth_duration_Mturk/DepthDuration_HTML.html#87,87,1680,907,1680,1050,2-19-2021,10-11-20,46,depth_duration_stimuli/000682_2014-06-08_23-14-58_260595134347_rgbf000041-resize_5/000682_2014-06-08_23-14-58_260595134347_rgbf000041-resize_5-target.png,1000,2.7239999999999998,2.4384,5692,1016,feet,1251830,1359344,56.0
435,563901,DepthScenes,duration_manipulation,av,http://54.165.233.113/DepthDuration/depth_duration_Mturk/DepthDuration_HTML.html#87,87,1680,907,1680,1050,2-19-2021,10-11-20,52,depth_duration_stimuli/002568_2014-06-24_13-59-21_094959634447_rgbf000062-resize_4/002568_2014-06-24_13-59-21_094959634447_rgbf000062-resize_4-target.png,1000,3.015,2.4384,4436,998,feet,1251830,1359344,56.0
441,563901,DepthScenes,duration_manipulation,av,http://54.165.233.113/DepthDuration/depth_duration_Mturk/DepthDuration_HTML.html#87,87,1680,907,1680,1050,2-19-2021,10-11-20,58,depth_duration_stimuli/000642_2014-06-08_16-59-25_260595134347_rgbf000098-resize_2/000642_2014-06-08_16-59-25_260595134347_rgbf000098-resize_2-target.png,1000,2.8815,1.8288000000000002,6547,986,feet,1251830,1359344,56.0
443,563901,DepthScenes,duration_manipulation,av,http://54.165.233.113/DepthDuration/depth_duration_Mturk/DepthDuration_HTML.html#87,87,1680,907,1680,1050,2-19-2021,10-11-20,60,depth_duration_stimuli/001016_2014-06-09_16-16-10_260595134347_rgbf000112-resize_5/001016_2014-06-09_16-16-10_260595134347_rgbf000112-resize_5-target.png,1000,1.6565,2.4384,4656,990,feet,1251830,1359344,56.0
444,563901,DepthScenes,duration_manipulation,av,http://54.165.233.113/DepthDuration/depth_duration_Mturk/DepthDuration_HTML.html#87,87,1680,907,1680,1050,2-19-2021,10-11-20,61,depth_duration_stimuli/001158_2014-06-17_15-32-16_260595134347_rgbf000138-resize_2/001158_2014-06-17_15-32-16_260595134347_rgbf000138-resize_2-target.png,1000,4.5315,6.096,4872,989,feet,1251830,1359344,56.0
450,563901,DepthScenes,duration_manipulation,av,http://54.165.233.113/DepthDuration/depth_duration_Mturk/DepthDuration_HTML.html#87,87,1680,907,1680,1050,2-19-2021,10-11-20,67,depth_duration_stimuli/002637_2014-06-24_14-51-13_094959634447_rgbf000066-resize_4/002637_2014-06-24_14-51-13_094959634447_rgbf000066-resize_4-target.png,1000,1.9955,2.4384,7890,998,feet,1251830,1359344,56.0
453,563901,DepthScenes,duration_manipulation,av,http://54.165.233.113/DepthDuration/depth_duration_Mturk/DepthDuration_HTML.html#87,87,1680,907,1680,1050,2-19-2021,10-11-20,70,depth_duration_stimuli/000866_2014-06-09_20-45-42_260595134347_rgbf000139-resize_1/000866_2014-06-09_20-45-42_260595134347_rgbf000139-resize_1-target.png,1000,3.2155,1.8288000000000002,5499,1002,feet,1251830,1359344,56.0
457,563901,DepthScenes,duration_manipulation,av,http://54.165.233.113/DepthDuration/depth_duration_Mturk/DepthDuration_HTML.html#87,87,1680,907,1680,1050,2-19-2021,10-11-20,74,depth_duration_stimuli/000635_2014-06-08_16-38-42_260595134347_rgbf000106-resize_1/000635_2014-06-08_16-38-42_260595134347_rgbf000106-resize_1-target.png,1000,2.074,3.6576000000000004,5394,1010,feet,1251830,1359344,56.0
469,563901,DepthScenes,duration_manipulation,av,http://54.165.233.113/DepthDuration/depth_duration_Mturk/DepthDuration_HTML.html#87,87,1680,907,1680,1050,2-19-2021,10-11-20,86,depth_duration_stimuli/000506_2014-06-08_23-21-00_260595134347_rgbf000070-resize_7/000506_2014-06-08_23-21-00_260595134347_rgbf000070-resize_7-target.png,1000,4.0585,3.6576000000000004,4521,1008,feet,1251830,1359344,56.0
471,563901,DepthScenes,duration_manipulation,av,http://54.165.233.113/DepthDuration/depth_duration_Mturk/DepthDuration_HTML.html#87,87,1680,907,1680,1050,2-19-2021,10-11-20,88,depth_duration_stimuli/003288_2014-05-14_21-50-30_094959634447_rgbf000028-resize_3/003288_2014-05-14_21-50-30_094959634447_rgbf000028-resize_3-target.png,1000,3.877,4.572,5067,1001,feet,1251830,1359344,56.0
472,563901,DepthScenes,duration_manipulation,av,http://54.165.233.113/DepthDuration/depth_duration_Mturk/DepthDuration_HTML.html#87,87,1680,907,1680,1050,2-19-2021,10-11-20,89,depth_duration_stimuli/002750_2014-06-22_19-08-03_094959634447_rgbf000094-resize_4/002750_2014-06-22_19-08-03_094959634447_rgbf000094-resize_4-target.png,1000,2.354,2.4384,5524,992,feet,1251830,1359344,56.0
474,563901,DepthScenes,duration_manipulation,av,http://54.165.233.113/DepthDuration/depth_duration_Mturk/DepthDuration_HTML.html#87,87,1680,907,1680,1050,2-19-2021,10-11-20,91,depth_duration_stimuli/002344_2014-06-28_20-06-29_260595134347_rgbf000030-resize_1/002344_2014-06-28_20-06-29_260595134347_rgbf000030-resize_1-target.png,1000,1.5795,1.2192,4249,987,feet,1251830,1359344,56.0
479,563901,DepthScenes,duration_manipulation,av,http://54.165.233.113/DepthDuration/depth_duration_Mturk/DepthDuration_HTML.html#87,87,1680,907,1680,1050,2-19-2021,10-11-20,96,depth_duration_stimuli/000556_2014-06-09_22-42-56_260595134347_rgbf000214-resize_1/000556_2014-06-09_22-42-56_260595134347_rgbf000214-resize_1-target.png,1000,4.8415,1.8288000000000002,5232,993,feet,1251830,1359344,56.0
480,563901,DepthScenes,duration_manipulation,av,http://54.165.233.113/DepthDuration/depth_duration_Mturk/DepthDuration_HTML.html#87,87,1680,907,1680,1050,2-19-2021,10-11-20,97,depth_duration_stimuli/002545_2014-06-24_13-38-53_094959634447_rgbf000080-resize_4/002545_2014-06-24_13-38-53_094959634447_rgbf000080-resize_4-target.png,1000,1.9205,1.8288000000000002,4653,1004,feet,1251830,1359344,56.0
481,563901,DepthScenes,duration_manipulation,av,http://54.165.233.113/DepthDuration/depth_duration_Mturk/DepthDuration_HTML.html#87,87,1680,907,1680,1050,2-19-2021,10-11-20,98,depth_duration_stimuli/002989_2014-06-15_12-25-03_094959634447_rgbf000150-resize_3/002989_2014-06-15_12-25-03_094959634447_rgbf000150-resize_3-target.png,1000,4.1975,3.6576000000000004,5078,990,feet,1251830,1359344,56.0
483,563901,DepthScenes,duration_manipulation,av,http://54.165.233.113/DepthDuration/depth_duration_Mturk/DepthDuration_HTML.html#87,87,1680,907,1680,1050,2-19-2021,10-11-20,100,depth_duration_stimuli/002118_2014-06-25_20-32-08_260595134347_rgbf000078-resize_1/002118_2014-06-25_20-32-08_260595134347_rgbf000078-resize_1-target.png,1000,2.6460000000000004,1.8288000000000002,4975,1001,feet,1251830,1359344,56.0
484,563901,DepthScenes,duration_manipulation,av,http://54.165.233.113/DepthDuration/depth_duration_Mturk/DepthDuration_HTML.html#87,87,1680,907,1680,1050,2-19-2021,10-11-20,101,depth_duration_stimuli/002725_2014-06-22_11-47-51_094959634447_rgbf000070-resize_1/002725_2014-06-22_11-47-51_094959634447_rgbf000070-resize_1-target.png,1000,2.195,2.4384,5160,1004,feet,1251830,1359344,56.0
486,563901,DepthScenes,duration_manipulation,av,http://54.165.233.113/DepthDuration/depth_duration_Mturk/DepthDuration_HTML.html#87,87,1680,907,1680,1050,2-19-2021,10-11-20,103,depth_duration_stimuli/002663_2014-06-13_15-50-26_094959634447_rgbf000075-resize_1/002663_2014-06-13_15-50-26_094959634447_rgbf000075-resize_1-target.png,1000,4.7495,2.4384,4218,1001,feet,1251830,1359344,56.0
498,563901,DepthScenes,duration_manipulation,av,http://54.165.233.113/DepthDuration/depth_duration_Mturk/DepthDuration_HTML.html#87,87,1680,907,1680,1050,2-19-2021,10-11-20,115,depth_duration_stimuli/000780_2014-06-08_22-28-29_260595134347_rgbf000126-resize_1/000780_2014-06-08_22-28-29_260595134347_rgbf000126-resize_1-target.png,1000,3.3825,1.8288000000000002,5655,1002,feet,1251830,1359344,56.0
508,563901,DepthScenes,duration_manipulation,av,http://54.165.233.113/DepthDuration/depth_duration_Mturk/DepthDuration_HTML.html#87,87,1680,907,1680,1050,2-19-2021,10-11-20,125,depth_duration_stimuli/001181_2014-06-17_15-50-57_260595134347_rgbf000106-resize_4/001181_2014-06-17_15-50-57_260595134347_rgbf000106-resize_4-target.png,1000,4.149,3.6576000000000004,4551,992,feet,1251830,1359344,56.0
510,563901,DepthScenes,duration_manipulation,av,http://54.165.233.113/DepthDuration/depth_duration_Mturk/DepthDuration_HTML.html#87,87,1680,907,1680,1050,2-19-2021,10-11-20,127,depth_duration_stimuli/000191_2014-05-12_17-07-38_260595134347_rgbf000199-resize_0/000191_2014-05-12_17-07-38_260595134347_rgbf000199-resize_0-target.png,1000,3.7995,3.048,6305,999,feet,1251830,1359344,56.0
514,563901,DepthScenes,duration_manipulation,av,http://54.165.233.113/DepthDuration/depth_duration_Mturk/DepthDuration_HTML.html#87,87,1680,907,1680,1050,2-19-2021,10-11-20,131,depth_duration_stimuli/002323_2014-06-28_20-01-54_260595134347_rgbf000051-resize_4/002323_2014-06-28_20-01-54_260595134347_rgbf000051-resize_4-target.png,1000,3.7310000000000003,4.8768,6528,972,feet,1251830,1359344,56.0
519,563901,DepthScenes,duration_manipulation,av,http://54.165.233.113/DepthDuration/depth_duration_Mturk/DepthDuration_HTML.html#87,87,1680,907,1680,1050,2-19-2021,10-11-20,136,depth_duration_stimuli/003587_2014-05-23_16-48-02_094959634447_rgbf002384-resize_2/003587_2014-05-23_16-48-02_094959634447_rgbf002384-resize_2-target.png,1000,1.357,0.6096,4693,1005,feet,1251830,1359344,56.0
520,563901,DepthScenes,duration_manipulation,av,http://54.165.233.113/DepthDuration/depth_duration_Mturk/DepthDuration_HTML.html#87,87,1680,907,1680,1050,2-19-2021,10-11-20,137,depth_duration_stimuli/001167_2014-06-17_15-38-07_260595134347_rgbf000108-resize_0/001167_2014-06-17_15-38-07_260595134347_rgbf000108-resize_0-target.png,1000,1.8505,1.2192,4879,1007,feet,1251830,1359344,56.0
525,563901,DepthScenes,duration_manipulation,av,http://54.165.233.113/DepthDuration/depth_duration_Mturk/DepthDuration_HTML.html#87,87,1680,907,1680,1050,2-19-2021,10-11-20,142,depth_duration_stimuli/002445_2014-06-28_20-32-16_260595134347_rgbf000029-resize_4/002445_2014-06-28_20-32-16_260595134347_rgbf000029-resize_4-target.png,1000,2.5315,1.524,5449,1004,feet,1251830,1359344,56.0
529,563901,DepthScenes,duration_manipulation,av,http://54.165.233.113/DepthDuration/depth_duration_Mturk/DepthDuration_HTML.html#87,87,1680,907,1680,1050,2-19-2021,10-11-20,146,depth_duration_stimuli/002875_2014-06-01_15-19-00_094959634447_rgbf000151-resize_1/002875_2014-06-01_15-19-00_094959634447_rgbf000151-resize_1-target.png,1000,1.9675,2.4384,3516,1001,feet,1251830,1359344,56.0
530,563901,DepthScenes,duration_manipulation,av,http://54.165.233.113/DepthDuration/depth_duration_Mturk/DepthDuration_HTML.html#87,87,1680,907,1680,1050,2-19-2021,10-11-20,147,depth_duration_stimuli/003010_2014-06-15_12-54-35_094959634447_rgbf000112-resize_0/003010_2014-06-15_12-54-35_094959634447_rgbf000112-resize_0-target.png,1000,3.1185,3.048,4272,1006,feet,1251830,1359344,56.0
531,563901,DepthScenes,duration_manipulation,av,http://54.165.233.113/DepthDuration/depth_duration_Mturk/DepthDuration_HTML.html#87,87,1680,907,1680,1050,2-19-2021,10-11-20,148,depth_duration_stimuli/001810_2014-06-26_20-51-35_260595134347_rgbf000040-resize_3/001810_2014-06-26_20-51-35_260595134347_rgbf000040-resize_3-target.png,1000,2.2525,1.524,4324,981,feet,1251830,1359344,56.0
533,563901,DepthScenes,duration_manipulation,av,http://54.165.233.113/DepthDuration/depth_duration_Mturk/DepthDuration_HTML.html#87,87,1680,907,1680,1050,2-19-2021,10-11-20,150,depth_duration_stimuli/000758_2014-06-08_22-05-08_260595134347_rgbf000085-resize_0/000758_2014-06-08_22-05-08_260595134347_rgbf000085-resize_0-target.png,1000,3.3810000000000002,3.048,4938,988,feet,1251830,1359344,56.0
534,563901,DepthScenes,duration_manipulation,av,http://54.165.233.113/DepthDuration/depth_duration_Mturk/DepthDuration_HTML.html#87,87,1680,907,1680,1050,2-19-2021,10-11-20,151,depth_duration_stimuli/002790_2014-06-22_19-36-35_094959634447_rgbf000074-resize_4/002790_2014-06-22_19-36-35_094959634447_rgbf000074-resize_4-target.png,1000,3.512,3.6576000000000004,3968,997,feet,1251830,1359344,56.0
535,563901,DepthScenes,duration_manipulation,av,http://54.165.233.113/DepthDuration/depth_duration_Mturk/DepthDuration_HTML.html#87,87,1680,907,1680,1050,2-19-2021,10-11-20,152,depth_duration_stimuli/001188_2014-06-17_15-54-10_260595134347_rgbf000090-resize_2/001188_2014-06-17_15-54-10_260595134347_rgbf000090-resize_2-target.png,1000,2.7439999999999998,3.048,5089,983,feet,1251830,1359344,56.0
538,563901,DepthScenes,duration_manipulation,av,http://54.165.233.113/DepthDuration/depth_duration_Mturk/DepthDuration_HTML.html#87,87,1680,907,1680,1050,2-19-2021,10-11-20,155,depth_duration_stimuli/000483_2014-06-09_20-41-45_260595134347_rgbf000116-resize_4/000483_2014-06-09_20-41-45_260595134347_rgbf000116-resize_4-target.png,1000,1.337,1.8288000000000002,4786,989,feet,1251830,1359344,56.0
547,563901,DepthScenes,duration_manipulation,av,http://54.165.233.113/DepthDuration/depth_duration_Mturk/DepthDuration_HTML.html#87,87,1680,907,1680,1050,2-19-2021,10-11-20,164,depth_duration_stimuli/001392_2014-06-19_16-07-59_260595134347_rgbf000046-resize_1/001392_2014-06-19_16-07-59_260595134347_rgbf000046-resize_1-target.png,1000,4.135,4.8768,4808,997,feet,1251830,1359344,56.0
551,563901,DepthScenes,duration_manipulation,av,http://54.165.233.113/DepthDuration/depth_duration_Mturk/DepthDuration_HTML.html#87,87,1680,907,1680,1050,2-19-2021,10-11-20,168,depth_duration_stimuli/001516_2014-06-20_16-25-09_260595134347_rgbf000076-resize_2/001516_2014-06-20_16-25-09_260595134347_rgbf000076-resize_2-target.png,1000,1.7445,2.4384,6063,989,feet,1251830,1359344,56.0
552,563901,DepthScenes,duration_manipulation,av,http://54.165.233.113/DepthDuration/depth_duration_Mturk/DepthDuration_HTML.html#87,87,1680,907,1680,1050,2-19-2021,10-11-20,169,depth_duration_stimuli/003129_2014-05-12_10-48-10_094959634447_rgbf000100-resize_0/003129_2014-05-12_10-48-10_094959634447_rgbf000100-resize_0-target.png,1000,4.9305,6.096,7163,1000,feet,1251830,1359344,56.0
554,563901,DepthScenes,duration_manipulation,av,http://54.165.233.113/DepthDuration/depth_duration_Mturk/DepthDuration_HTML.html#87,87,1680,907,1680,1050,2-19-2021,10-11-20,171,depth_duration_stimuli/001066_2014-06-08_22-03-20_260595134347_rgbf000066-resize_4/001066_2014-06-08_22-03-20_260595134347_rgbf000066-resize_4-target.png,1000,4.2330000000000005,6.096,4654,980,feet,1251830,1359344,56.0
571,563901,DepthScenes,duration_manipulation,av,http://54.165.233.113/DepthDuration/depth_duration_Mturk/DepthDuration_HTML.html#87,87,1680,907,1680,1050,2-19-2021,10-11-20,188,depth_duration_stimuli/001059_2014-06-08_21-53-27_260595134347_rgbf000061-resize_4/001059_2014-06-08_21-53-27_260595134347_rgbf000061-resize_4-target.png,1000,2.4185,2.4384,4797,988,feet,1251830,1359344,56.0
576,846649,DepthScenes,duration_manipulation,aj,http://54.165.233.113/DepthDuration/depth_duration_Mturk/DepthDuration_HTML.html#39,39,1366,768,1366,768,2-19-2021,10-11-2,1,depth_duration_stimuli/001133_2014-06-17_14-49-16_260595134347_rgbf000100-resize_0/001133_2014-06-17_14-49-16_260595134347_rgbf000100-resize_0-target.png,1000,4.2115,3.0,2828,1000,meters,1036210,1351972,35.0
580,846649,DepthScenes,duration_manipulation,aj,http://54.165.233.113/DepthDuration/depth_duration_Mturk/DepthDuration_HTML.html#39,39,1366,768,1366,768,2-19-2021,10-11-2,5,depth_duration_stimuli/000549_2014-06-08_22-10-24_260595134347_rgbf000247-resize_3/000549_2014-06-08_22-10-24_260595134347_rgbf000247-resize_3-target.png,1000,1.841,2.0,2194,1001,meters,1036210,1351972,35.0
584,846649,DepthScenes,duration_manipulation,aj,http://54.165.233.113/DepthDuration/depth_duration_Mturk/DepthDuration_HTML.html#39,39,1366,768,1366,768,2-19-2021,10-11-2,9,depth_duration_stimuli/001617_2014-06-20_11-35-32_260595134347_rgbf000066-resize_1/001617_2014-06-20_11-35-32_260595134347_rgbf000066-resize_1-target.png,1000,3.7910000000000004,7.0,2290,1000,meters,1036210,1351972,35.0
585,846649,DepthScenes,duration_manipulation,aj,http://54.165.233.113/DepthDuration/depth_duration_Mturk/DepthDuration_HTML.html#39,39,1366,768,1366,768,2-19-2021,10-11-2,10,depth_duration_stimuli/003423_2014-05-21_10-23-26_094959634447_rgbf002665-resize_2/003423_2014-05-21_10-23-26_094959634447_rgbf002665-resize_2-target.png,1000,3.2575,2.0,2177,1000,meters,1036210,1351972,35.0
593,846649,DepthScenes,duration_manipulation,aj,http://54.165.233.113/DepthDuration/depth_duration_Mturk/DepthDuration_HTML.html#39,39,1366,768,1366,768,2-19-2021,10-11-2,18,depth_duration_stimuli/000709_2014-06-08_13-51-55_260595134347_rgbf000068-resize_3/000709_2014-06-08_13-51-55_260595134347_rgbf000068-resize_3-target.png,1000,1.8030000000000002,5.0,2395,1001,meters,1036210,1351972,35.0
595,846649,DepthScenes,duration_manipulation,aj,http://54.165.233.113/DepthDuration/depth_duration_Mturk/DepthDuration_HTML.html#39,39,1366,768,1366,768,2-19-2021,10-11-2,20,depth_duration_stimuli/001100_2014-06-15_17-46-26_260595134347_rgbf000225-resize_2/001100_2014-06-15_17-46-26_260595134347_rgbf000225-resize_2-target.png,1000,2.24,4.0,2203,1000,meters,1036210,1351972,35.0
597,846649,DepthScenes,duration_manipulation,aj,http://54.165.233.113/DepthDuration/depth_duration_Mturk/DepthDuration_HTML.html#39,39,1366,768,1366,768,2-19-2021,10-11-2,22,depth_duration_stimuli/000457_2014-06-08_16-52-43_260595134347_rgbf000199-resize_1/000457_2014-06-08_16-52-43_260595134347_rgbf000199-resize_1-target.png,1000,3.6489999999999996,6.0,2186,1000,meters,1036210,1351972,35.0
603,846649,DepthScenes,duration_manipulation,aj,http://54.165.233.113/DepthDuration/depth_duration_Mturk/DepthDuration_HTML.html#39,39,1366,768,1366,768,2-19-2021,10-11-2,28,depth_duration_stimuli/000502_2014-06-08_23-02-32_260595134347_rgbf000063-resize_4/000502_2014-06-08_23-02-32_260595134347_rgbf000063-resize_4-target.png,1000,2.431,5.0,2179,1000,meters,1036210,1351972,35.0
606,846649,DepthScenes,duration_manipulation,aj,http://54.165.233.113/DepthDuration/depth_duration_Mturk/DepthDuration_HTML.html#39,39,1366,768,1366,768,2-19-2021,10-11-2,31,depth_duration_stimuli/002788_2014-06-22_19-36-03_094959634447_rgbf000088-resize_2/002788_2014-06-22_19-36-03_094959634447_rgbf000088-resize_2-target.png,1000,1.6465,5.0,2194,1001,meters,1036210,1351972,35.0
610,846649,DepthScenes,duration_manipulation,aj,http://54.165.233.113/DepthDuration/depth_duration_Mturk/DepthDuration_HTML.html#39,39,1366,768,1366,768,2-19-2021,10-11-2,35,depth_duration_stimuli/000917_2014-06-09_22-45-29_260595134347_rgbf000149-resize_3/000917_2014-06-09_22-45-29_260595134347_rgbf000149-resize_3-target.png,1000,4.1865,6.0,2458,1000,meters,1036210,1351972,35.0
617,846649,DepthScenes,duration_manipulation,aj,http://54.165.233.113/DepthDuration/depth_duration_Mturk/DepthDuration_HTML.html#39,39,1366,768,1366,768,2-19-2021,10-11-2,42,depth_duration_stimuli/003129_2014-05-12_10-48-10_094959634447_rgbf000100-resize_0/003129_2014-05-12_10-48-10_094959634447_rgbf000100-resize_0-target.png,1000,4.9305,7.0,2977,1000,meters,1036210,1351972,35.0
619,846649,DepthScenes,duration_manipulation,aj,http://54.165.233.113/DepthDuration/depth_duration_Mturk/DepthDuration_HTML.html#39,39,1366,768,1366,768,2-19-2021,10-11-2,44,depth_duration_stimuli/000800_2014-06-08_22-42-09_260595134347_rgbf000095-resize_3/000800_2014-06-08_22-42-09_260595134347_rgbf000095-resize_3-target.png,1000,2.8,5.0,3107,1001,meters,1036210,1351972,35.0
630,846649,DepthScenes,duration_manipulation,aj,http://54.165.233.113/DepthDuration/depth_duration_Mturk/DepthDuration_HTML.html#39,39,1366,768,1366,768,2-19-2021,10-11-2,55,depth_duration_stimuli/003621_2014-05-23_18-06-08_094959634447_rgbf000101-resize_1/003621_2014-05-23_18-06-08_094959634447_rgbf000101-resize_1-target.png,1000,3.9835,6.0,2931,1001,meters,1036210,1351972,35.0
633,846649,DepthScenes,duration_manipulation,aj,http://54.165.233.113/DepthDuration/depth_duration_Mturk/DepthDuration_HTML.html#39,39,1366,768,1366,768,2-19-2021,10-11-2,58,depth_duration_stimuli/000742_2014-06-08_18-48-09_260595134347_rgbf000164-resize_4/000742_2014-06-08_18-48-09_260595134347_rgbf000164-resize_4-target.png,1000,4.632,6.0,2850,1000,meters,1036210,1351972,35.0
639,846649,DepthScenes,duration_manipulation,aj,http://54.165.233.113/DepthDuration/depth_duration_Mturk/DepthDuration_HTML.html#39,39,1366,768,1366,768,2-19-2021,10-11-2,64,depth_duration_stimuli/000635_2014-06-08_16-38-42_260595134347_rgbf000106-resize_1/000635_2014-06-08_16-38-42_260595134347_rgbf000106-resize_1-target.png,1000,2.074,6.0,2714,1000,meters,1036210,1351972,35.0
641,846649,DepthScenes,duration_manipulation,aj,http://54.165.233.113/DepthDuration/depth_duration_Mturk/DepthDuration_HTML.html#39,39,1366,768,1366,768,2-19-2021,10-11-2,66,depth_duration_stimuli/000753_2014-06-08_21-57-44_260595134347_rgbf000123-resize_3/000753_2014-06-08_21-57-44_260595134347_rgbf000123-resize_3-target.png,1000,1.916,6.0,2763,1000,meters,1036210,1351972,35.0
643,846649,DepthScenes,duration_manipulation,aj,http://54.165.233.113/DepthDuration/depth_duration_Mturk/DepthDuration_HTML.html#39,39,1366,768,1366,768,2-19-2021,10-11-2,68,depth_duration_stimuli/001092_2014-06-15_17-34-58_260595134347_rgbf000171-resize_3/001092_2014-06-15_17-34-58_260595134347_rgbf000171-resize_3-target.png,1000,2.6935,6.0,2690,1001,meters,1036210,1351972,35.0
649,846649,DepthScenes,duration_manipulation,aj,http://54.165.233.113/DepthDuration/depth_duration_Mturk/DepthDuration_HTML.html#39,39,1366,768,1366,768,2-19-2021,10-11-2,74,depth_duration_stimuli/001828_2014-06-26_21-40-03_260595134347_rgbf000024-resize_0/001828_2014-06-26_21-40-03_260595134347_rgbf000024-resize_0-target.png,1000,4.8260000000000005,5.0,2537,1000,meters,1036210,1351972,35.0
658,846649,DepthScenes,duration_manipulation,aj,http://54.165.233.113/DepthDuration/depth_duration_Mturk/DepthDuration_HTML.html#39,39,1366,768,1366,768,2-19-2021,10-11-2,83,depth_duration_stimuli/001136_2014-06-17_15-19-41_260595134347_rgbf000076-resize_3/001136_2014-06-17_15-19-41_260595134347_rgbf000076-resize_3-target.png,1000,1.8655,6.0,2730,1000,meters,1036210,1351972,35.0
659,846649,DepthScenes,duration_manipulation,aj,http://54.165.233.113/DepthDuration/depth_duration_Mturk/DepthDuration_HTML.html#39,39,1366,768,1366,768,2-19-2021,10-11-2,84,depth_duration_stimuli/000734_2014-06-08_17-39-11_260595134347_rgbf000128-resize_2/000734_2014-06-08_17-39-11_260595134347_rgbf000128-resize_2-target.png,1000,4.098,8.0,2937,1000,meters,1036210,1351972,35.0
665,846649,DepthScenes,duration_manipulation,aj,http://54.165.233.113/DepthDuration/depth_duration_Mturk/DepthDuration_HTML.html#39,39,1366,768,1366,768,2-19-2021,10-11-2,90,depth_duration_stimuli/000665_2014-06-09_20-42-35_260595134347_rgbf000110-resize_1/000665_2014-06-09_20-42-35_260595134347_rgbf000110-resize_1-target.png,1000,3.057,6.0,2419,1000,meters,1036210,1351972,35.0
668,846649,DepthScenes,duration_manipulation,aj,http://54.165.233.113/DepthDuration/depth_duration_Mturk/DepthDuration_HTML.html#39,39,1366,768,1366,768,2-19-2021,10-11-2,93,depth_duration_stimuli/000929_2014-06-09_16-33-19_260595134347_rgbf000139-resize_0/000929_2014-06-09_16-33-19_260595134347_rgbf000139-resize_0-target.png,1000,2.8680000000000003,6.0,4714,1000,meters,1036210,1351972,35.0
670,846649,DepthScenes,duration_manipulation,aj,http://54.165.233.113/DepthDuration/depth_duration_Mturk/DepthDuration_HTML.html#39,39,1366,768,1366,768,2-19-2021,10-11-2,95,depth_duration_stimuli/002700_2014-06-22_11-27-02_094959634447_rgbf000124-resize_3/002700_2014-06-22_11-27-02_094959634447_rgbf000124-resize_3-target.png,1000,3.301,6.0,2489,1000,meters,1036210,1351972,35.0
671,846649,DepthScenes,duration_manipulation,aj,http://54.165.233.113/DepthDuration/depth_duration_Mturk/DepthDuration_HTML.html#39,39,1366,768,1366,768,2-19-2021,10-11-2,96,depth_duration_stimuli/002279_2014-06-28_18-55-32_260595134347_rgbf000040-resize_5/002279_2014-06-28_18-55-32_260595134347_rgbf000040-resize_5-target.png,1000,1.5043333333333,5.0,2418,1000,meters,1036210,1351972,35.0
681,846649,DepthScenes,duration_manipulation,aj,http://54.165.233.113/DepthDuration/depth_duration_Mturk/DepthDuration_HTML.html#39,39,1366,768,1366,768,2-19-2021,10-11-2,106,depth_duration_stimuli/001056_2014-06-08_18-46-44_260595134347_rgbf000068-resize_0/001056_2014-06-08_18-46-44_260595134347_rgbf000068-resize_0-target.png,1000,2.6625,6.0,2218,1000,meters,1036210,1351972,35.0
683,846649,DepthScenes,duration_manipulation,aj,http://54.165.233.113/DepthDuration/depth_duration_Mturk/DepthDuration_HTML.html#39,39,1366,768,1366,768,2-19-2021,10-11-2,108,depth_duration_stimuli/001197_2014-06-17_16-01-50_260595134347_rgbf000103-resize_4/001197_2014-06-17_16-01-50_260595134347_rgbf000103-resize_4-target.png,1000,3.4025,6.0,7043,1000,meters,1036210,1351972,35.0
688,846649,DepthScenes,duration_manipulation,aj,http://54.165.233.113/DepthDuration/depth_duration_Mturk/DepthDuration_HTML.html#39,39,1366,768,1366,768,2-19-2021,10-11-2,113,depth_duration_stimuli/002875_2014-06-01_15-19-00_094959634447_rgbf000151-resize_1/002875_2014-06-01_15-19-00_094959634447_rgbf000151-resize_1-target.png,1000,1.9675,6.0,3154,1000,meters,1036210,1351972,35.0
696,846649,DepthScenes,duration_manipulation,aj,http://54.165.233.113/DepthDuration/depth_duration_Mturk/DepthDuration_HTML.html#39,39,1366,768,1366,768,2-19-2021,10-11-2,121,depth_duration_stimuli/001016_2014-06-09_16-16-10_260595134347_rgbf000112-resize_5/001016_2014-06-09_16-16-10_260595134347_rgbf000112-resize_5-target.png,1000,1.6565,5.0,2380,997,meters,1036210,1351972,35.0
698,846649,DepthScenes,duration_manipulation,aj,http://54.165.233.113/DepthDuration/depth_duration_Mturk/DepthDuration_HTML.html#39,39,1366,768,1366,768,2-19-2021,10-11-2,123,depth_duration_stimuli/003534_2014-05-22_15-06-10_094959634447_rgbf000102-resize_4/003534_2014-05-22_15-06-10_094959634447_rgbf000102-resize_4-target.png,1000,1.426,5.0,3545,999,meters,1036210,1351972,35.0
702,846649,DepthScenes,duration_manipulation,aj,http://54.165.233.113/DepthDuration/depth_duration_Mturk/DepthDuration_HTML.html#39,39,1366,768,1366,768,2-19-2021,10-11-2,127,depth_duration_stimuli/003070_2014-06-15_14-58-27_094959634447_rgbf000150-resize_3/003070_2014-06-15_14-58-27_094959634447_rgbf000150-resize_3-target.png,1000,2.9415,7.0,2370,1000,meters,1036210,1351972,35.0
709,846649,DepthScenes,duration_manipulation,aj,http://54.165.233.113/DepthDuration/depth_duration_Mturk/DepthDuration_HTML.html#39,39,1366,768,1366,768,2-19-2021,10-11-2,134,depth_duration_stimuli/000677_2014-06-08_23-10-32_260595134347_rgbf000158-resize_6/000677_2014-06-08_23-10-32_260595134347_rgbf000158-resize_6-target.png,1000,3.556,6.0,2538,1000,meters,1036210,1351972,35.0
710,846649,DepthScenes,duration_manipulation,aj,http://54.165.233.113/DepthDuration/depth_duration_Mturk/DepthDuration_HTML.html#39,39,1366,768,1366,768,2-19-2021,10-11-2,135,depth_duration_stimuli/003048_2014-06-15_13-49-43_094959634447_rgbf000150-resize_1/003048_2014-06-15_13-49-43_094959634447_rgbf000150-resize_1-target.png,1000,4.0035,6.0,2769,1000,meters,1036210,1351972,35.0
712,846649,DepthScenes,duration_manipulation,aj,http://54.165.233.113/DepthDuration/depth_duration_Mturk/DepthDuration_HTML.html#39,39,1366,768,1366,768,2-19-2021,10-11-2,137,depth_duration_stimuli/000447_2014-06-08_16-15-46_260595134347_rgbf000130-resize_1/000447_2014-06-08_16-15-46_260595134347_rgbf000130-resize_1-target.png,1000,4.479,4.0,4450,1000,meters,1036210,1351972,35.0
713,846649,DepthScenes,duration_manipulation,aj,http://54.165.233.113/DepthDuration/depth_duration_Mturk/DepthDuration_HTML.html#39,39,1366,768,1366,768,2-19-2021,10-11-2,138,depth_duration_stimuli/001164_2014-06-17_15-35-46_260595134347_rgbf000085-resize_3/001164_2014-06-17_15-35-46_260595134347_rgbf000085-resize_3-target.png,1000,2.354,6.0,2858,1000,meters,1036210,1351972,35.0
717,846649,DepthScenes,duration_manipulation,aj,http://54.165.233.113/DepthDuration/depth_duration_Mturk/DepthDuration_HTML.html#39,39,1366,768,1366,768,2-19-2021,10-11-2,142,depth_duration_stimuli/000542_2014-06-08_18-27-08_260595134347_rgbf000118-resize_1/000542_2014-06-08_18-27-08_260595134347_rgbf000118-resize_1-target.png,1000,3.0,7.0,2266,1000,meters,1036210,1351972,35.0
719,846649,DepthScenes,duration_manipulation,aj,http://54.165.233.113/DepthDuration/depth_duration_Mturk/DepthDuration_HTML.html#39,39,1366,768,1366,768,2-19-2021,10-11-2,144,depth_duration_stimuli/002414_2014-06-28_20-24-58_260595134347_rgbf000067-resize_4/002414_2014-06-28_20-24-58_260595134347_rgbf000067-resize_4-target.png,1000,4.363,5.0,2611,1000,meters,1036210,1351972,35.0
721,846649,DepthScenes,duration_manipulation,aj,http://54.165.233.113/DepthDuration/depth_duration_Mturk/DepthDuration_HTML.html#39,39,1366,768,1366,768,2-19-2021,10-11-2,146,depth_duration_stimuli/001110_2014-06-15_17-25-28_260595134347_rgbf000150-resize_1/001110_2014-06-15_17-25-28_260595134347_rgbf000150-resize_1-target.png,1000,1.7115,5.0,2282,1000,meters,1036210,1351972,35.0
722,846649,DepthScenes,duration_manipulation,aj,http://54.165.233.113/DepthDuration/depth_duration_Mturk/DepthDuration_HTML.html#39,39,1366,768,1366,768,2-19-2021,10-11-2,147,depth_duration_stimuli/000109_2014-05-14_23-41-52_260595134347_rgbf000035-resize_9/000109_2014-05-14_23-41-52_260595134347_rgbf000035-resize_9-target.png,1000,1.3545,6.0,2155,1000,meters,1036210,1351972,35.0
724,846649,DepthScenes,duration_manipulation,aj,http://54.165.233.113/DepthDuration/depth_duration_Mturk/DepthDuration_HTML.html#39,39,1366,768,1366,768,2-19-2021,10-11-2,149,depth_duration_stimuli/002199_2014-06-28_18-33-56_260595134347_rgbf000074-resize_0/002199_2014-06-28_18-33-56_260595134347_rgbf000074-resize_0-target.png,1000,1.996,6.0,2283,1000,meters,1036210,1351972,35.0
731,846649,DepthScenes,duration_manipulation,aj,http://54.165.233.113/DepthDuration/depth_duration_Mturk/DepthDuration_HTML.html#39,39,1366,768,1366,768,2-19-2021,10-11-2,156,depth_duration_stimuli/002570_2014-06-24_13-59-54_094959634447_rgbf000059-resize_0/002570_2014-06-24_13-59-54_094959634447_rgbf000059-resize_0-target.png,1000,4.037,6.0,2627,1000,meters,1036210,1351972,35.0
748,846649,DepthScenes,duration_manipulation,aj,http://54.165.233.113/DepthDuration/depth_duration_Mturk/DepthDuration_HTML.html#39,39,1366,768,1366,768,2-19-2021,10-11-2,173,depth_duration_stimuli/002758_2014-06-22_19-11-20_094959634447_rgbf000128-resize_1/002758_2014-06-22_19-11-20_094959634447_rgbf000128-resize_1-target.png,1000,2.555,5.0,2258,1000,meters,1036210,1351972,35.0
750,846649,DepthScenes,duration_manipulation,aj,http://54.165.233.113/DepthDuration/depth_duration_Mturk/DepthDuration_HTML.html#39,39,1366,768,1366,768,2-19-2021,10-11-2,175,depth_duration_stimuli/001175_2014-06-17_15-45-55_260595134347_rgbf000129-resize_4/001175_2014-06-17_15-45-55_260595134347_rgbf000129-resize_4-target.png,1000,4.255,9.0,2714,1001,meters,1036210,1351972,35.0
757,846649,DepthScenes,duration_manipulation,aj,http://54.165.233.113/DepthDuration/depth_duration_Mturk/DepthDuration_HTML.html#39,39,1366,768,1366,768,2-19-2021,10-11-2,182,depth_duration_stimuli/001449_2014-06-19_17-01-27_260595134347_rgbf000116-resize_2/001449_2014-06-19_17-01-27_260595134347_rgbf000116-resize_2-target.png,1000,3.452,4.0,2202,1000,meters,1036210,1351972,35.0
758,846649,DepthScenes,duration_manipulation,aj,http://54.165.233.113/DepthDuration/depth_duration_Mturk/DepthDuration_HTML.html#39,39,1366,768,1366,768,2-19-2021,10-11-2,183,depth_duration_stimuli/002725_2014-06-22_11-47-51_094959634447_rgbf000070-resize_1/002725_2014-06-22_11-47-51_094959634447_rgbf000070-resize_1-target.png,1000,2.195,5.0,2433,1000,meters,1036210,1351972,35.0
759,846649,DepthScenes,duration_manipulation,aj,http://54.165.233.113/DepthDuration/depth_duration_Mturk/DepthDuration_HTML.html#39,39,1366,768,1366,768,2-19-2021,10-11-2,184,depth_duration_stimuli/001011_2014-06-08_23-18-54_260595134347_rgbf000044-resize_4/001011_2014-06-08_23-18-54_260595134347_rgbf000044-resize_4-target.png,1000,2.4730000000000003,7.0,3906,1000,meters,1036210,1351972,35.0
761,846649,DepthScenes,duration_manipulation,aj,http://54.165.233.113/DepthDuration/depth_duration_Mturk/DepthDuration_HTML.html#39,39,1366,768,1366,768,2-19-2021,10-11-2,186,depth_duration_stimuli/002103_2014-06-25_20-00-40_260595134347_rgbf000049-resize_0/002103_2014-06-25_20-00-40_260595134347_rgbf000049-resize_0-target.png,1000,4.105,5.0,51651,1001,meters,1036210,1351972,35.0
762,846649,DepthScenes,duration_manipulation,aj,http://54.165.233.113/DepthDuration/depth_duration_Mturk/DepthDuration_HTML.html#39,39,1366,768,1366,768,2-19-2021,10-11-2,187,depth_duration_stimuli/001235_2014-06-17_16-37-36_260595134347_rgbf000084-resize_4/001235_2014-06-17_16-37-36_260595134347_rgbf000084-resize_4-target.png,1000,3.6605,7.0,3833,1000,meters,1036210,1351972,35.0
764,846649,DepthScenes,duration_manipulation,aj,http://54.165.233.113/DepthDuration/depth_duration_Mturk/DepthDuration_HTML.html#39,39,1366,768,1366,768,2-19-2021,10-11-2,189,depth_duration_stimuli/002995_2014-06-15_12-31-26_094959634447_rgbf000150-resize_1/002995_2014-06-15_12-31-26_094959634447_rgbf000150-resize_1-target.png,1000,3.8360000000000003,9.0,3002,1000,meters,1036210,1351972,35.0
768,319259,DepthScenes,duration_manipulation,ak,http://54.165.233.113/DepthDuration/depth_duration_Mturk/DepthDuration_HTML.html#43,43,1920,1007,1920,1080,2-19-2021,10-11-5,1,depth_duration_stimuli/001516_2014-06-20_16-25-09_260595134347_rgbf000076-resize_2/001516_2014-06-20_16-25-09_260595134347_rgbf000076-resize_2-target.png,1000,1.7445,0.9144000000000001,3121,1000,feet,654257,693304,30.0
771,319259,DepthScenes,duration_manipulation,ak,http://54.165.233.113/DepthDuration/depth_duration_Mturk/DepthDuration_HTML.html#43,43,1920,1007,1920,1080,2-19-2021,10-11-5,4,depth_duration_stimuli/001235_2014-06-17_16-37-36_260595134347_rgbf000084-resize_4/001235_2014-06-17_16-37-36_260595134347_rgbf000084-resize_4-target.png,1000,3.6605,1.524,2877,1001,feet,654257,693304,30.0
775,319259,DepthScenes,duration_manipulation,ak,http://54.165.233.113/DepthDuration/depth_duration_Mturk/DepthDuration_HTML.html#43,43,1920,1007,1920,1080,2-19-2021,10-11-5,8,depth_duration_stimuli/000555_2014-06-09_22-42-23_260595134347_rgbf000037-resize_4/000555_2014-06-09_22-42-23_260595134347_rgbf000037-resize_4-target.png,1000,1.9765,0.9144000000000001,2682,999,feet,654257,693304,30.0
778,319259,DepthScenes,duration_manipulation,ak,http://54.165.233.113/DepthDuration/depth_duration_Mturk/DepthDuration_HTML.html#43,43,1920,1007,1920,1080,2-19-2021,10-11-5,11,depth_duration_stimuli/001264_2014-06-16_16-10-23_260595134347_rgbf000109-resize_1/001264_2014-06-16_16-10-23_260595134347_rgbf000109-resize_1-target.png,1000,2.9665,1.524,3073,1000,feet,654257,693304,30.0
780,319259,DepthScenes,duration_manipulation,ak,http://54.165.233.113/DepthDuration/depth_duration_Mturk/DepthDuration_HTML.html#43,43,1920,1007,1920,1080,2-19-2021,10-11-5,13,depth_duration_stimuli/002213_2014-06-28_18-37-58_260595134347_rgbf000055-resize_1/002213_2014-06-28_18-37-58_260595134347_rgbf000055-resize_1-target.png,1000,3.62,3.048,3147,1000,feet,654257,693304,30.0
794,319259,DepthScenes,duration_manipulation,ak,http://54.165.233.113/DepthDuration/depth_duration_Mturk/DepthDuration_HTML.html#43,43,1920,1007,1920,1080,2-19-2021,10-11-5,27,depth_duration_stimuli/001244_2014-06-17_16-47-45_260595134347_rgbf000030-resize_4/001244_2014-06-17_16-47-45_260595134347_rgbf000030-resize_4-target.png,1000,2.0425,0.9144000000000001,4323,1000,feet,654257,693304,30.0
795,319259,DepthScenes,duration_manipulation,ak,http://54.165.233.113/DepthDuration/depth_duration_Mturk/DepthDuration_HTML.html#43,43,1920,1007,1920,1080,2-19-2021,10-11-5,28,depth_duration_stimuli/000929_2014-06-09_16-33-19_260595134347_rgbf000139-resize_0/000929_2014-06-09_16-33-19_260595134347_rgbf000139-resize_0-target.png,1000,2.8680000000000003,1.2192,2930,999,feet,654257,693304,30.0
800,319259,DepthScenes,duration_manipulation,ak,http://54.165.233.113/DepthDuration/depth_duration_Mturk/DepthDuration_HTML.html#43,43,1920,1007,1920,1080,2-19-2021,10-11-5,33,depth_duration_stimuli/001447_2014-06-19_17-00-32_260595134347_rgbf000082-resize_5/001447_2014-06-19_17-00-32_260595134347_rgbf000082-resize_5-target.png,1000,4.13775,3.048,2826,999,feet,654257,693304,30.0
803,319259,DepthScenes,duration_manipulation,ak,http://54.165.233.113/DepthDuration/depth_duration_Mturk/DepthDuration_HTML.html#43,43,1920,1007,1920,1080,2-19-2021,10-11-5,36,depth_duration_stimuli/002468_2014-06-28_20-38-39_260595134347_rgbf000045-resize_1/002468_2014-06-28_20-38-39_260595134347_rgbf000045-resize_1-target.png,1000,1.956,3.048,2907,1000,feet,654257,693304,30.0
807,319259,DepthScenes,duration_manipulation,ak,http://54.165.233.113/DepthDuration/depth_duration_Mturk/DepthDuration_HTML.html#43,43,1920,1007,1920,1080,2-19-2021,10-11-5,40,depth_duration_stimuli/002663_2014-06-13_15-50-26_094959634447_rgbf000075-resize_1/002663_2014-06-13_15-50-26_094959634447_rgbf000075-resize_1-target.png,1000,4.7495,3.048,2643,1000,feet,654257,693304,30.0
812,319259,DepthScenes,duration_manipulation,ak,http://54.165.233.113/DepthDuration/depth_duration_Mturk/DepthDuration_HTML.html#43,43,1920,1007,1920,1080,2-19-2021,10-11-5,45,depth_duration_stimuli/003492_2014-05-21_15-50-55_094959634447_rgbf000828-resize_1/003492_2014-05-21_15-50-55_094959634447_rgbf000828-resize_1-target.png,1000,4.06875,3.6576000000000004,2828,1001,feet,654257,693304,30.0
814,319259,DepthScenes,duration_manipulation,ak,http://54.165.233.113/DepthDuration/depth_duration_Mturk/DepthDuration_HTML.html#43,43,1920,1007,1920,1080,2-19-2021,10-11-5,47,depth_duration_stimuli/003081_2014-06-15_15-19-16_094959634447_rgbf000150-resize_1/003081_2014-06-15_15-19-16_094959634447_rgbf000150-resize_1-target.png,1000,3.9125,1.8288000000000002,2811,1001,feet,654257,693304,30.0
816,319259,DepthScenes,duration_manipulation,ak,http://54.165.233.113/DepthDuration/depth_duration_Mturk/DepthDuration_HTML.html#43,43,1920,1007,1920,1080,2-19-2021,10-11-5,49,depth_duration_stimuli/002272_2014-06-28_18-53-56_260595134347_rgbf000067-resize_2/002272_2014-06-28_18-53-56_260595134347_rgbf000067-resize_2-target.png,1000,1.138,0.3048,2962,999,feet,654257,693304,30.0
822,319259,DepthScenes,duration_manipulation,ak,http://54.165.233.113/DepthDuration/depth_duration_Mturk/DepthDuration_HTML.html#43,43,1920,1007,1920,1080,2-19-2021,10-11-5,55,depth_duration_stimuli/003010_2014-06-15_12-54-35_094959634447_rgbf000112-resize_0/003010_2014-06-15_12-54-35_094959634447_rgbf000112-resize_0-target.png,1000,3.1185,1.8288000000000002,2809,999,feet,654257,693304,30.0
825,319259,DepthScenes,duration_manipulation,ak,http://54.165.233.113/DepthDuration/depth_duration_Mturk/DepthDuration_HTML.html#43,43,1920,1007,1920,1080,2-19-2021,10-11-5,58,depth_duration_stimuli/002788_2014-06-22_19-36-03_094959634447_rgbf000088-resize_2/002788_2014-06-22_19-36-03_094959634447_rgbf000088-resize_2-target.png,1000,1.6465,1.8288000000000002,2682,1000,feet,654257,693304,30.0
828,319259,DepthScenes,duration_manipulation,ak,http://54.165.233.113/DepthDuration/depth_duration_Mturk/DepthDuration_HTML.html#43,43,1920,1007,1920,1080,2-19-2021,10-11-5,61,depth_duration_stimuli/002987_2014-06-08_18-48-20_094959634447_rgbf000022-resize_0/002987_2014-06-08_18-48-20_094959634447_rgbf000022-resize_0-target.png,1000,2.6775,2.4384,2737,999,feet,654257,693304,30.0
833,319259,DepthScenes,duration_manipulation,ak,http://54.165.233.113/DepthDuration/depth_duration_Mturk/DepthDuration_HTML.html#43,43,1920,1007,1920,1080,2-19-2021,10-11-5,66,depth_duration_stimuli/001011_2014-06-08_23-18-54_260595134347_rgbf000044-resize_4/001011_2014-06-08_23-18-54_260595134347_rgbf000044-resize_4-target.png,1000,2.4730000000000003,1.8288000000000002,2721,1000,feet,654257,693304,30.0
838,319259,DepthScenes,duration_manipulation,ak,http://54.165.233.113/DepthDuration/depth_duration_Mturk/DepthDuration_HTML.html#43,43,1920,1007,1920,1080,2-19-2021,10-11-5,71,depth_duration_stimuli/000522_2014-06-08_13-35-06_260595134347_rgbf000244-resize_1/000522_2014-06-08_13-35-06_260595134347_rgbf000244-resize_1-target.png,1000,2.3715,0.3048,2626,1001,feet,654257,693304,30.0
843,319259,DepthScenes,duration_manipulation,ak,http://54.165.233.113/DepthDuration/depth_duration_Mturk/DepthDuration_HTML.html#43,43,1920,1007,1920,1080,2-19-2021,10-11-5,76,depth_duration_stimuli/002365_2014-06-28_20-11-21_260595134347_rgbf000102-resize_1/002365_2014-06-28_20-11-21_260595134347_rgbf000102-resize_1-target.png,1000,4.013,3.048,3483,1002,feet,654257,693304,30.0
844,319259,DepthScenes,duration_manipulation,ak,http://54.165.233.113/DepthDuration/depth_duration_Mturk/DepthDuration_HTML.html#43,43,1920,1007,1920,1080,2-19-2021,10-11-5,77,depth_duration_stimuli/002988_2014-06-15_12-24-20_094959634447_rgbf000150-resize_1/002988_2014-06-15_12-24-20_094959634447_rgbf000150-resize_1-target.png,1000,4.7669999999999995,3.048,2915,1000,feet,654257,693304,30.0
848,319259,DepthScenes,duration_manipulation,ak,http://54.165.233.113/DepthDuration/depth_duration_Mturk/DepthDuration_HTML.html#43,43,1920,1007,1920,1080,2-19-2021,10-11-5,81,depth_duration_stimuli/002657_2014-06-13_15-29-54_094959634447_rgbf000150-resize_1/002657_2014-06-13_15-29-54_094959634447_rgbf000150-resize_1-target.png,1000,4.919,3.048,2939,1002,feet,654257,693304,30.0
852,319259,DepthScenes,duration_manipulation,ak,http://54.165.233.113/DepthDuration/depth_duration_Mturk/DepthDuration_HTML.html#43,43,1920,1007,1920,1080,2-19-2021,10-11-5,85,depth_duration_stimuli/003288_2014-05-14_21-50-30_094959634447_rgbf000028-resize_3/003288_2014-05-14_21-50-30_094959634447_rgbf000028-resize_3-target.png,1000,3.877,2.4384,2781,1001,feet,654257,693304,30.0
853,319259,DepthScenes,duration_manipulation,ak,http://54.165.233.113/DepthDuration/depth_duration_Mturk/DepthDuration_HTML.html#43,43,1920,1007,1920,1080,2-19-2021,10-11-5,86,depth_duration_stimuli/002964_2014-06-08_17-46-11_094959634447_rgbf000091-resize_4/002964_2014-06-08_17-46-11_094959634447_rgbf000091-resize_4-target.png,1000,1.6909999999999998,1.2192,2610,999,feet,654257,693304,30.0
857,319259,DepthScenes,duration_manipulation,ak,http://54.165.233.113/DepthDuration/depth_duration_Mturk/DepthDuration_HTML.html#43,43,1920,1007,1920,1080,2-19-2021,10-11-5,90,depth_duration_stimuli/001132_2014-06-17_14-48-54_260595134347_rgbf000100-resize_2/001132_2014-06-17_14-48-54_260595134347_rgbf000100-resize_2-target.png,1000,3.753,2.4384,2825,999,feet,654257,693304,30.0
871,319259,DepthScenes,duration_manipulation,ak,http://54.165.233.113/DepthDuration/depth_duration_Mturk/DepthDuration_HTML.html#43,43,1920,1007,1920,1080,2-19-2021,10-11-5,104,depth_duration_stimuli/000542_2014-06-08_18-27-08_260595134347_rgbf000118-resize_1/000542_2014-06-08_18-27-08_260595134347_rgbf000118-resize_1-target.png,1000,3.0,1.524,2614,1000,feet,654257,693304,30.0
873,319259,DepthScenes,duration_manipulation,ak,http://54.165.233.113/DepthDuration/depth_duration_Mturk/DepthDuration_HTML.html#43,43,1920,1007,1920,1080,2-19-2021,10-11-5,106,depth_duration_stimuli/000736_2014-06-08_18-24-15_260595134347_rgbf000206-resize_3/000736_2014-06-08_18-24-15_260595134347_rgbf000206-resize_3-target.png,1000,3.515,1.2192,2722,1000,feet,654257,693304,30.0
876,319259,DepthScenes,duration_manipulation,ak,http://54.165.233.113/DepthDuration/depth_duration_Mturk/DepthDuration_HTML.html#43,43,1920,1007,1920,1080,2-19-2021,10-11-5,109,depth_duration_stimuli/000720_2014-06-08_18-37-27_260595134347_rgbf000203-resize_4/000720_2014-06-08_18-37-27_260595134347_rgbf000203-resize_4-target.png,1000,1.558,0.9144000000000001,2618,1000,feet,654257,693304,30.0
878,319259,DepthScenes,duration_manipulation,ak,http://54.165.233.113/DepthDuration/depth_duration_Mturk/DepthDuration_HTML.html#43,43,1920,1007,1920,1080,2-19-2021,10-11-5,111,depth_duration_stimuli/000735_2014-06-08_18-23-50_260595134347_rgbf000163-resize_2/000735_2014-06-08_18-23-50_260595134347_rgbf000163-resize_2-target.png,1000,4.1695,1.524,2811,1000,feet,654257,693304,30.0
880,319259,DepthScenes,duration_manipulation,ak,http://54.165.233.113/DepthDuration/depth_duration_Mturk/DepthDuration_HTML.html#43,43,1920,1007,1920,1080,2-19-2021,10-11-5,113,depth_duration_stimuli/002750_2014-06-22_19-08-03_094959634447_rgbf000094-resize_4/002750_2014-06-22_19-08-03_094959634447_rgbf000094-resize_4-target.png,1000,2.354,1.2192,2771,1001,feet,654257,693304,30.0
881,319259,DepthScenes,duration_manipulation,ak,http://54.165.233.113/DepthDuration/depth_duration_Mturk/DepthDuration_HTML.html#43,43,1920,1007,1920,1080,2-19-2021,10-11-5,114,depth_duration_stimuli/003546_2014-05-22_15-48-53_094959634447_rgbf004816-resize_3/003546_2014-05-22_15-48-53_094959634447_rgbf004816-resize_3-target.png,1000,2.62625,1.2192,3650,1000,feet,654257,693304,30.0
883,319259,DepthScenes,duration_manipulation,ak,http://54.165.233.113/DepthDuration/depth_duration_Mturk/DepthDuration_HTML.html#43,43,1920,1007,1920,1080,2-19-2021,10-11-5,116,depth_duration_stimuli/001167_2014-06-17_15-38-07_260595134347_rgbf000108-resize_0/001167_2014-06-17_15-38-07_260595134347_rgbf000108-resize_0-target.png,1000,1.8505,1.2192,2635,1000,feet,654257,693304,30.0
888,319259,DepthScenes,duration_manipulation,ak,http://54.165.233.113/DepthDuration/depth_duration_Mturk/DepthDuration_HTML.html#43,43,1920,1007,1920,1080,2-19-2021,10-11-5,121,depth_duration_stimuli/001066_2014-06-08_22-03-20_260595134347_rgbf000066-resize_4/001066_2014-06-08_22-03-20_260595134347_rgbf000066-resize_4-target.png,1000,4.2330000000000005,3.3528000000000002,3026,1000,feet,654257,693304,30.0
894,319259,DepthScenes,duration_manipulation,ak,http://54.165.233.113/DepthDuration/depth_duration_Mturk/DepthDuration_HTML.html#43,43,1920,1007,1920,1080,2-19-2021,10-11-5,127,depth_duration_stimuli/001100_2014-06-15_17-46-26_260595134347_rgbf000225-resize_2/001100_2014-06-15_17-46-26_260595134347_rgbf000225-resize_2-target.png,1000,2.24,0.6096,2610,999,feet,654257,693304,30.0
903,319259,DepthScenes,duration_manipulation,ak,http://54.165.233.113/DepthDuration/depth_duration_Mturk/DepthDuration_HTML.html#43,43,1920,1007,1920,1080,2-19-2021,10-11-5,136,depth_duration_stimuli/002570_2014-06-24_13-59-54_094959634447_rgbf000059-resize_0/002570_2014-06-24_13-59-54_094959634447_rgbf000059-resize_0-target.png,1000,4.037,6.096,2804,1000,feet,654257,693304,30.0
911,319259,DepthScenes,duration_manipulation,ak,http://54.165.233.113/DepthDuration/depth_duration_Mturk/DepthDuration_HTML.html#43,43,1920,1007,1920,1080,2-19-2021,10-11-5,144,depth_duration_stimuli/003534_2014-05-22_15-06-10_094959634447_rgbf000102-resize_4/003534_2014-05-22_15-06-10_094959634447_rgbf000102-resize_4-target.png,1000,1.426,0.3048,2634,1000,feet,654257,693304,30.0
912,319259,DepthScenes,duration_manipulation,ak,http://54.165.233.113/DepthDuration/depth_duration_Mturk/DepthDuration_HTML.html#43,43,1920,1007,1920,1080,2-19-2021,10-11-5,145,depth_duration_stimuli/002790_2014-06-22_19-36-35_094959634447_rgbf000074-resize_4/002790_2014-06-22_19-36-35_094959634447_rgbf000074-resize_4-target.png,1000,3.512,1.524,2570,999,feet,654257,693304,30.0
921,319259,DepthScenes,duration_manipulation,ak,http://54.165.233.113/DepthDuration/depth_duration_Mturk/DepthDuration_HTML.html#43,43,1920,1007,1920,1080,2-19-2021,10-11-5,154,depth_duration_stimuli/003069_2014-06-15_14-57-50_094959634447_rgbf000150-resize_4/003069_2014-06-15_14-57-50_094959634447_rgbf000150-resize_4-target.png,1000,4.208,2.4384,2643,999,feet,654257,693304,30.0
923,319259,DepthScenes,duration_manipulation,ak,http://54.165.233.113/DepthDuration/depth_duration_Mturk/DepthDuration_HTML.html#43,43,1920,1007,1920,1080,2-19-2021,10-11-5,156,depth_duration_stimuli/002199_2014-06-28_18-33-56_260595134347_rgbf000074-resize_0/002199_2014-06-28_18-33-56_260595134347_rgbf000074-resize_0-target.png,1000,1.996,0.6096,3347,999,feet,654257,693304,30.0
929,319259,DepthScenes,duration_manipulation,ak,http://54.165.233.113/DepthDuration/depth_duration_Mturk/DepthDuration_HTML.html#43,43,1920,1007,1920,1080,2-19-2021,10-11-5,162,depth_duration_stimuli/002139_2014-06-25_21-19-37_260595134347_rgbf000124-resize_2/002139_2014-06-25_21-19-37_260595134347_rgbf000124-resize_2-target.png,1000,2.1069999999999998,1.524,2659,1002,feet,654257,693304,30.0
931,319259,DepthScenes,duration_manipulation,ak,http://54.165.233.113/DepthDuration/depth_duration_Mturk/DepthDuration_HTML.html#43,43,1920,1007,1920,1080,2-19-2021,10-11-5,164,depth_duration_stimuli/001618_2014-06-20_11-37-31_260595134347_rgbf000027-resize_3/001618_2014-06-20_11-37-31_260595134347_rgbf000027-resize_3-target.png,1000,1.8725,0.6096,2738,1000,feet,654257,693304,30.0
933,319259,DepthScenes,duration_manipulation,ak,http://54.165.233.113/DepthDuration/depth_duration_Mturk/DepthDuration_HTML.html#43,43,1920,1007,1920,1080,2-19-2021,10-11-5,166,depth_duration_stimuli/002039_2014-06-24_20-22-38_260595134347_rgbf000084-resize_1/002039_2014-06-24_20-22-38_260595134347_rgbf000084-resize_1-target.png,1000,4.408,3.048,3314,999,feet,654257,693304,30.0
935,319259,DepthScenes,duration_manipulation,ak,http://54.165.233.113/DepthDuration/depth_duration_Mturk/DepthDuration_HTML.html#43,43,1920,1007,1920,1080,2-19-2021,10-11-5,168,depth_duration_stimuli/002763_2014-06-22_19-13-10_094959634447_rgbf000075-resize_4/002763_2014-06-22_19-13-10_094959634447_rgbf000075-resize_4-target.png,1000,1.68375,3.048,2826,1000,feet,654257,693304,30.0
948,319259,DepthScenes,duration_manipulation,ak,http://54.165.233.113/DepthDuration/depth_duration_Mturk/DepthDuration_HTML.html#43,43,1920,1007,1920,1080,2-19-2021,10-11-5,181,depth_duration_stimuli/000866_2014-06-09_20-45-42_260595134347_rgbf000139-resize_1/000866_2014-06-09_20-45-42_260595134347_rgbf000139-resize_1-target.png,1000,3.2155,2.7432000000000003,2699,1000,feet,654257,693304,30.0
949,319259,DepthScenes,duration_manipulation,ak,http://54.165.233.113/DepthDuration/depth_duration_Mturk/DepthDuration_HTML.html#43,43,1920,1007,1920,1080,2-19-2021,10-11-5,182,depth_duration_stimuli/001092_2014-06-15_17-34-58_260595134347_rgbf000171-resize_3/001092_2014-06-15_17-34-58_260595134347_rgbf000171-resize_3-target.png,1000,2.6935,0.6096,2609,1000,feet,654257,693304,30.0
954,319259,DepthScenes,duration_manipulation,ak,http://54.165.233.113/DepthDuration/depth_duration_Mturk/DepthDuration_HTML.html#43,43,1920,1007,1920,1080,2-19-2021,10-11-5,187,depth_duration_stimuli/002600_2014-06-24_14-27-04_094959634447_rgbf000074-resize_2/002600_2014-06-24_14-27-04_094959634447_rgbf000074-resize_2-target.png,1000,2.7575,1.8288000000000002,2771,1000,feet,654257,693304,30.0
956,319259,DepthScenes,duration_manipulation,ak,http://54.165.233.113/DepthDuration/depth_duration_Mturk/DepthDuration_HTML.html#43,43,1920,1007,1920,1080,2-19-2021,10-11-5,189,depth_duration_stimuli/001197_2014-06-17_16-01-50_260595134347_rgbf000103-resize_4/001197_2014-06-17_16-01-50_260595134347_rgbf000103-resize_4-target.png,1000,3.4025,2.4384,2930,1000,feet,654257,693304,30.0
960,832052,DepthScenes,duration_manipulation,ac,http://54.165.233.113/DepthDuration/depth_duration_Mturk/DepthDuration_HTML.html#12,12,2560,937,2560,1080,2-19-2021,10-12-46,1,depth_duration_stimuli/000830_2014-06-04_19-49-31_260595134347_rgbf000096-resize_2/000830_2014-06-04_19-49-31_260595134347_rgbf000096-resize_2-target.png,1000,2.6353333333332998,2.1336,4655,1009,feet,1009566,1132583,60.0
961,832052,DepthScenes,duration_manipulation,ac,http://54.165.233.113/DepthDuration/depth_duration_Mturk/DepthDuration_HTML.html#12,12,2560,937,2560,1080,2-19-2021,10-12-46,2,depth_duration_stimuli/003083_2014-06-15_15-21-03_094959634447_rgbf000063-resize_1/003083_2014-06-15_15-21-03_094959634447_rgbf000063-resize_1-target.png,1000,4.1405,4.2672,6232,1013,feet,1009566,1132583,60.0
962,832052,DepthScenes,duration_manipulation,ac,http://54.165.233.113/DepthDuration/depth_duration_Mturk/DepthDuration_HTML.html#12,12,2560,937,2560,1080,2-19-2021,10-12-46,3,depth_duration_stimuli/001032_2014-06-08_13-23-17_260595134347_rgbf000021-resize_3/001032_2014-06-08_13-23-17_260595134347_rgbf000021-resize_3-target.png,1000,3.2725,2.1336,6034,1002,feet,1009566,1132583,60.0
967,832052,DepthScenes,duration_manipulation,ac,http://54.165.233.113/DepthDuration/depth_duration_Mturk/DepthDuration_HTML.html#12,12,2560,937,2560,1080,2-19-2021,10-12-46,8,depth_duration_stimuli/001235_2014-06-17_16-37-36_260595134347_rgbf000084-resize_4/001235_2014-06-17_16-37-36_260595134347_rgbf000084-resize_4-target.png,1000,3.6605,3.6576000000000004,5161,1009,feet,1009566,1132583,60.0
983,832052,DepthScenes,duration_manipulation,ac,http://54.165.233.113/DepthDuration/depth_duration_Mturk/DepthDuration_HTML.html#12,12,2560,937,2560,1080,2-19-2021,10-12-46,24,depth_duration_stimuli/000735_2014-06-08_18-23-50_260595134347_rgbf000163-resize_2/000735_2014-06-08_18-23-50_260595134347_rgbf000163-resize_2-target.png,1000,4.1695,3.9624,7834,1008,feet,1009566,1132583,60.0
992,832052,DepthScenes,duration_manipulation,ac,http://54.165.233.113/DepthDuration/depth_duration_Mturk/DepthDuration_HTML.html#12,12,2560,937,2560,1080,2-19-2021,10-12-46,33,depth_duration_stimuli/000505_2014-06-08_23-03-23_260595134347_rgbf000091-resize_0/000505_2014-06-08_23-03-23_260595134347_rgbf000091-resize_0-target.png,1000,3.3105,1.524,4090,1000,feet,1009566,1132583,60.0
995,832052,DepthScenes,duration_manipulation,ac,http://54.165.233.113/DepthDuration/depth_duration_Mturk/DepthDuration_HTML.html#12,12,2560,937,2560,1080,2-19-2021,10-12-46,36,depth_duration_stimuli/001055_2014-06-08_18-45-35_260595134347_rgbf000111-resize_4/001055_2014-06-08_18-45-35_260595134347_rgbf000111-resize_4-target.png,1000,2.4290000000000003,2.4384,5158,1007,feet,1009566,1132583,60.0
996,832052,DepthScenes,duration_manipulation,ac,http://54.165.233.113/DepthDuration/depth_duration_Mturk/DepthDuration_HTML.html#12,12,2560,937,2560,1080,2-19-2021,10-12-46,37,depth_duration_stimuli/003069_2014-06-15_14-57-50_094959634447_rgbf000150-resize_4/003069_2014-06-15_14-57-50_094959634447_rgbf000150-resize_4-target.png,1000,4.208,3.3528000000000002,4601,1004,feet,1009566,1132583,60.0
998,832052,DepthScenes,duration_manipulation,ac,http://54.165.233.113/DepthDuration/depth_duration_Mturk/DepthDuration_HTML.html#12,12,2560,937,2560,1080,2-19-2021,10-12-46,39,depth_duration_stimuli/000720_2014-06-08_18-37-27_260595134347_rgbf000203-resize_4/000720_2014-06-08_18-37-27_260595134347_rgbf000203-resize_4-target.png,1000,1.558,2.1336,7076,1003,feet,1009566,1132583,60.0
999,832052,DepthScenes,duration_manipulation,ac,http://54.165.233.113/DepthDuration/depth_duration_Mturk/DepthDuration_HTML.html#12,12,2560,937,2560,1080,2-19-2021,10-12-46,40,depth_duration_stimuli/001618_2014-06-20_11-37-31_260595134347_rgbf000027-resize_3/001618_2014-06-20_11-37-31_260595134347_rgbf000027-resize_3-target.png,1000,1.8725,1.524,4277,1005,feet,1009566,1132583,60.0
1002,832052,DepthScenes,duration_manipulation,ac,http://54.165.233.113/DepthDuration/depth_duration_Mturk/DepthDuration_HTML.html#12,12,2560,937,2560,1080,2-19-2021,10-12-46,43,depth_duration_stimuli/001092_2014-06-15_17-34-58_260595134347_rgbf000171-resize_3/001092_2014-06-15_17-34-58_260595134347_rgbf000171-resize_3-target.png,1000,2.6935,2.1336,5699,1000,feet,1009566,1132583,60.0
1003,832052,DepthScenes,duration_manipulation,ac,http://54.165.233.113/DepthDuration/depth_duration_Mturk/DepthDuration_HTML.html#12,12,2560,937,2560,1080,2-19-2021,10-12-46,44,depth_duration_stimuli/001555_2014-06-20_17-12-10_260595134347_rgbf000065-resize_4/001555_2014-06-20_17-12-10_260595134347_rgbf000065-resize_4-target.png,1000,1.633,1.3716000000000002,4401,1001,feet,1009566,1132583,60.0
1009,832052,DepthScenes,duration_manipulation,ac,http://54.165.233.113/DepthDuration/depth_duration_Mturk/DepthDuration_HTML.html#12,12,2560,937,2560,1080,2-19-2021,10-12-46,50,depth_duration_stimuli/002139_2014-06-25_21-19-37_260595134347_rgbf000124-resize_2/002139_2014-06-25_21-19-37_260595134347_rgbf000124-resize_2-target.png,1000,2.1069999999999998,1.8288000000000002,3867,1007,feet,1009566,1132583,60.0
1013,832052,DepthScenes,duration_manipulation,ac,http://54.165.233.113/DepthDuration/depth_duration_Mturk/DepthDuration_HTML.html#12,12,2560,937,2560,1080,2-19-2021,10-12-46,54,depth_duration_stimuli/001167_2014-06-17_15-38-07_260595134347_rgbf000108-resize_0/001167_2014-06-17_15-38-07_260595134347_rgbf000108-resize_0-target.png,1000,1.8505,1.524,4046,1002,feet,1009566,1132583,60.0
1015,832052,DepthScenes,duration_manipulation,ac,http://54.165.233.113/DepthDuration/depth_duration_Mturk/DepthDuration_HTML.html#12,12,2560,937,2560,1080,2-19-2021,10-12-46,56,depth_duration_stimuli/000943_2014-06-09_19-31-07_260595134347_rgbf000128-resize_1/000943_2014-06-09_19-31-07_260595134347_rgbf000128-resize_1-target.png,1000,1.9765,1.8288000000000002,3805,1000,feet,1009566,1132583,60.0
1019,832052,DepthScenes,duration_manipulation,ac,http://54.165.233.113/DepthDuration/depth_duration_Mturk/DepthDuration_HTML.html#12,12,2560,937,2560,1080,2-19-2021,10-12-46,60,depth_duration_stimuli/000665_2014-06-09_20-42-35_260595134347_rgbf000110-resize_1/000665_2014-06-09_20-42-35_260595134347_rgbf000110-resize_1-target.png,1000,3.057,2.4384,4717,1007,feet,1009566,1132583,60.0
1021,832052,DepthScenes,duration_manipulation,ac,http://54.165.233.113/DepthDuration/depth_duration_Mturk/DepthDuration_HTML.html#12,12,2560,937,2560,1080,2-19-2021,10-12-46,62,depth_duration_stimuli/002570_2014-06-24_13-59-54_094959634447_rgbf000059-resize_0/002570_2014-06-24_13-59-54_094959634447_rgbf000059-resize_0-target.png,1000,4.037,3.3528000000000002,5461,1015,feet,1009566,1132583,60.0
1022,832052,DepthScenes,duration_manipulation,ac,http://54.165.233.113/DepthDuration/depth_duration_Mturk/DepthDuration_HTML.html#12,12,2560,937,2560,1080,2-19-2021,10-12-46,63,depth_duration_stimuli/001828_2014-06-26_21-40-03_260595134347_rgbf000024-resize_0/001828_2014-06-26_21-40-03_260595134347_rgbf000024-resize_0-target.png,1000,4.8260000000000005,3.9624,4941,1014,feet,1009566,1132583,60.0
1029,832052,DepthScenes,duration_manipulation,ac,http://54.165.233.113/DepthDuration/depth_duration_Mturk/DepthDuration_HTML.html#12,12,2560,937,2560,1080,2-19-2021,10-12-46,70,depth_duration_stimuli/002987_2014-06-08_18-48-20_094959634447_rgbf000022-resize_0/002987_2014-06-08_18-48-20_094959634447_rgbf000022-resize_0-target.png,1000,2.6775,3.048,6543,1002,feet,1009566,1132583,60.0
1030,832052,DepthScenes,duration_manipulation,ac,http://54.165.233.113/DepthDuration/depth_duration_Mturk/DepthDuration_HTML.html#12,12,2560,937,2560,1080,2-19-2021,10-12-46,71,depth_duration_stimuli/000642_2014-06-08_16-59-25_260595134347_rgbf000098-resize_2/000642_2014-06-08_16-59-25_260595134347_rgbf000098-resize_2-target.png,1000,2.8815,2.1336,5429,1000,feet,1009566,1132583,60.0
1031,832052,DepthScenes,duration_manipulation,ac,http://54.165.233.113/DepthDuration/depth_duration_Mturk/DepthDuration_HTML.html#12,12,2560,937,2560,1080,2-19-2021,10-12-46,72,depth_duration_stimuli/001450_2014-06-19_17-02-03_260595134347_rgbf000203-resize_4/001450_2014-06-19_17-02-03_260595134347_rgbf000203-resize_4-target.png,1000,4.0106666666667,3.6576000000000004,6279,999,feet,1009566,1132583,60.0
1039,832052,DepthScenes,duration_manipulation,ac,http://54.165.233.113/DepthDuration/depth_duration_Mturk/DepthDuration_HTML.html#12,12,2560,937,2560,1080,2-19-2021,10-12-46,80,depth_duration_stimuli/000677_2014-06-08_23-10-32_260595134347_rgbf000158-resize_6/000677_2014-06-08_23-10-32_260595134347_rgbf000158-resize_6-target.png,1000,3.556,2.7432000000000003,4957,1002,feet,1009566,1132583,60.0
1042,832052,DepthScenes,duration_manipulation,ac,http://54.165.233.113/DepthDuration/depth_duration_Mturk/DepthDuration_HTML.html#12,12,2560,937,2560,1080,2-19-2021,10-12-46,83,depth_duration_stimuli/000469_2014-06-09_19-42-10_260595134347_rgbf000081-resize_1/000469_2014-06-09_19-42-10_260595134347_rgbf000081-resize_1-target.png,1000,1.652,1.524,3866,1000,feet,1009566,1132583,60.0
1043,832052,DepthScenes,duration_manipulation,ac,http://54.165.233.113/DepthDuration/depth_duration_Mturk/DepthDuration_HTML.html#12,12,2560,937,2560,1080,2-19-2021,10-12-46,84,depth_duration_stimuli/001132_2014-06-17_14-48-54_260595134347_rgbf000100-resize_2/001132_2014-06-17_14-48-54_260595134347_rgbf000100-resize_2-target.png,1000,3.753,2.4384,4384,1000,feet,1009566,1132583,60.0
1058,832052,DepthScenes,duration_manipulation,ac,http://54.165.233.113/DepthDuration/depth_duration_Mturk/DepthDuration_HTML.html#12,12,2560,937,2560,1080,2-19-2021,10-12-46,99,depth_duration_stimuli/002905_2014-06-03_18-04-43_094959634447_rgbf000151-resize_2/002905_2014-06-03_18-04-43_094959634447_rgbf000151-resize_2-target.png,1000,2.0295,1.524,6434,1000,feet,1009566,1132583,60.0
1059,832052,DepthScenes,duration_manipulation,ac,http://54.165.233.113/DepthDuration/depth_duration_Mturk/DepthDuration_HTML.html#12,12,2560,937,2560,1080,2-19-2021,10-12-46,100,depth_duration_stimuli/000800_2014-06-08_22-42-09_260595134347_rgbf000095-resize_3/000800_2014-06-08_22-42-09_260595134347_rgbf000095-resize_3-target.png,1000,2.8,1.9812,4640,999,feet,1009566,1132583,60.0
1060,832052,DepthScenes,duration_manipulation,ac,http://54.165.233.113/DepthDuration/depth_duration_Mturk/DepthDuration_HTML.html#12,12,2560,937,2560,1080,2-19-2021,10-12-46,101,depth_duration_stimuli/001724_2014-06-26_19-28-50_260595134347_rgbf000037-resize_7/001724_2014-06-26_19-28-50_260595134347_rgbf000037-resize_7-target.png,1000,3.827,4.572,4578,1000,feet,1009566,1132583,60.0
1063,832052,DepthScenes,duration_manipulation,ac,http://54.165.233.113/DepthDuration/depth_duration_Mturk/DepthDuration_HTML.html#12,12,2560,937,2560,1080,2-19-2021,10-12-46,104,depth_duration_stimuli/001650_2014-06-20_12-09-00_260595134347_rgbf000087-resize_3/001650_2014-06-20_12-09-00_260595134347_rgbf000087-resize_3-target.png,1000,1.9505,1.2192,5907,1012,feet,1009566,1132583,60.0
1069,832052,DepthScenes,duration_manipulation,ac,http://54.165.233.113/DepthDuration/depth_duration_Mturk/DepthDuration_HTML.html#12,12,2560,937,2560,1080,2-19-2021,10-12-46,110,depth_duration_stimuli/003587_2014-05-23_16-48-02_094959634447_rgbf002384-resize_2/003587_2014-05-23_16-48-02_094959634447_rgbf002384-resize_2-target.png,1000,1.357,1.0668,5027,1000,feet,1009566,1132583,60.0
1071,832052,DepthScenes,duration_manipulation,ac,http://54.165.233.113/DepthDuration/depth_duration_Mturk/DepthDuration_HTML.html#12,12,2560,937,2560,1080,2-19-2021,10-12-46,112,depth_duration_stimuli/002039_2014-06-24_20-22-38_260595134347_rgbf000084-resize_1/002039_2014-06-24_20-22-38_260595134347_rgbf000084-resize_1-target.png,1000,4.408,3.9624,5451,1001,feet,1009566,1132583,60.0
1080,832052,DepthScenes,duration_manipulation,ac,http://54.165.233.113/DepthDuration/depth_duration_Mturk/DepthDuration_HTML.html#12,12,2560,937,2560,1080,2-19-2021,10-12-46,121,depth_duration_stimuli/000542_2014-06-08_18-27-08_260595134347_rgbf000118-resize_1/000542_2014-06-08_18-27-08_260595134347_rgbf000118-resize_1-target.png,1000,3.0,2.4384,4077,1000,feet,1009566,1132583,60.0
1084,832052,DepthScenes,duration_manipulation,ac,http://54.165.233.113/DepthDuration/depth_duration_Mturk/DepthDuration_HTML.html#12,12,2560,937,2560,1080,2-19-2021,10-12-46,125,depth_duration_stimuli/002460_2014-06-28_20-35-43_260595134347_rgbf000028-resize_4/002460_2014-06-28_20-35-43_260595134347_rgbf000028-resize_4-target.png,1000,2.269,1.6764000000000001,4811,1000,feet,1009566,1132583,60.0
1085,832052,DepthScenes,duration_manipulation,ac,http://54.165.233.113/DepthDuration/depth_duration_Mturk/DepthDuration_HTML.html#12,12,2560,937,2560,1080,2-19-2021,10-12-46,126,depth_duration_stimuli/000109_2014-05-14_23-41-52_260595134347_rgbf000035-resize_9/000109_2014-05-14_23-41-52_260595134347_rgbf000035-resize_9-target.png,1000,1.3545,1.2192,4137,999,feet,1009566,1132583,60.0
1098,832052,DepthScenes,duration_manipulation,ac,http://54.165.233.113/DepthDuration/depth_duration_Mturk/DepthDuration_HTML.html#12,12,2560,937,2560,1080,2-19-2021,10-12-46,139,depth_duration_stimuli/000734_2014-06-08_17-39-11_260595134347_rgbf000128-resize_2/000734_2014-06-08_17-39-11_260595134347_rgbf000128-resize_2-target.png,1000,4.098,2.4384,6488,1002,feet,1009566,1132583,60.0
1099,832052,DepthScenes,duration_manipulation,ac,http://54.165.233.113/DepthDuration/depth_duration_Mturk/DepthDuration_HTML.html#12,12,2560,937,2560,1080,2-19-2021,10-12-46,140,depth_duration_stimuli/002213_2014-06-28_18-37-58_260595134347_rgbf000055-resize_1/002213_2014-06-28_18-37-58_260595134347_rgbf000055-resize_1-target.png,1000,3.62,3.6576000000000004,4717,1000,feet,1009566,1132583,60.0
1103,832052,DepthScenes,duration_manipulation,ac,http://54.165.233.113/DepthDuration/depth_duration_Mturk/DepthDuration_HTML.html#12,12,2560,937,2560,1080,2-19-2021,10-12-46,144,depth_duration_stimuli/002748_2014-06-22_19-07-22_094959634447_rgbf000078-resize_1/002748_2014-06-22_19-07-22_094959634447_rgbf000078-resize_1-target.png,1000,4.6705,3.3528000000000002,4693,1000,feet,1009566,1132583,60.0
1108,832052,DepthScenes,duration_manipulation,ac,http://54.165.233.113/DepthDuration/depth_duration_Mturk/DepthDuration_HTML.html#12,12,2560,937,2560,1080,2-19-2021,10-12-46,149,depth_duration_stimuli/002043_2014-06-24_20-29-38_260595134347_rgbf000039-resize_4/002043_2014-06-24_20-29-38_260595134347_rgbf000039-resize_4-target.png,1000,2.8435,2.4384,4763,1001,feet,1009566,1132583,60.0
1110,832052,DepthScenes,duration_manipulation,ac,http://54.165.233.113/DepthDuration/depth_duration_Mturk/DepthDuration_HTML.html#12,12,2560,937,2560,1080,2-19-2021,10-12-46,151,depth_duration_stimuli/003228_2014-05-14_13-42-35_094959634447_rgbf000101-resize_1/003228_2014-05-14_13-42-35_094959634447_rgbf000101-resize_1-target.png,1000,1.9680000000000002,1.6764000000000001,4816,999,feet,1009566,1132583,60.0
1115,832052,DepthScenes,duration_manipulation,ac,http://54.165.233.113/DepthDuration/depth_duration_Mturk/DepthDuration_HTML.html#12,12,2560,937,2560,1080,2-19-2021,10-12-46,156,depth_duration_stimuli/001199_2014-06-17_16-03-48_260595134347_rgbf000077-resize_0/001199_2014-06-17_16-03-48_260595134347_rgbf000077-resize_0-target.png,1000,3.4375,3.048,4632,1013,feet,1009566,1132583,60.0
1118,832052,DepthScenes,duration_manipulation,ac,http://54.165.233.113/DepthDuration/depth_duration_Mturk/DepthDuration_HTML.html#12,12,2560,937,2560,1080,2-19-2021,10-12-46,159,depth_duration_stimuli/001808_2014-06-26_20-50-58_260595134347_rgbf000029-resize_1/001808_2014-06-26_20-50-58_260595134347_rgbf000029-resize_1-target.png,1000,4.249,3.3528000000000002,4254,1007,feet,1009566,1132583,60.0
1124,832052,DepthScenes,duration_manipulation,ac,http://54.165.233.113/DepthDuration/depth_duration_Mturk/DepthDuration_HTML.html#12,12,2560,937,2560,1080,2-19-2021,10-12-46,165,depth_duration_stimuli/003621_2014-05-23_18-06-08_094959634447_rgbf000101-resize_1/003621_2014-05-23_18-06-08_094959634447_rgbf000101-resize_1-target.png,1000,3.9835,2.1336,4717,1000,feet,1009566,1132583,60.0
1125,832052,DepthScenes,duration_manipulation,ac,http://54.165.233.113/DepthDuration/depth_duration_Mturk/DepthDuration_HTML.html#12,12,2560,937,2560,1080,2-19-2021,10-12-46,166,depth_duration_stimuli/000773_2014-06-08_22-24-54_260595134347_rgbf000093-resize_1/000773_2014-06-08_22-24-54_260595134347_rgbf000093-resize_1-target.png,1000,4.973,3.3528000000000002,3967,1010,feet,1009566,1132583,60.0
1127,832052,DepthScenes,duration_manipulation,ac,http://54.165.233.113/DepthDuration/depth_duration_Mturk/DepthDuration_HTML.html#12,12,2560,937,2560,1080,2-19-2021,10-12-46,168,depth_duration_stimuli/000869_2014-06-09_20-50-18_260595134347_rgbf000060-resize_3/000869_2014-06-09_20-50-18_260595134347_rgbf000060-resize_3-target.png,1000,2.266,1.524,4741,1000,feet,1009566,1132583,60.0
1129,832052,DepthScenes,duration_manipulation,ac,http://54.165.233.113/DepthDuration/depth_duration_Mturk/DepthDuration_HTML.html#12,12,2560,937,2560,1080,2-19-2021,10-12-46,170,depth_duration_stimuli/000709_2014-06-08_13-51-55_260595134347_rgbf000068-resize_3/000709_2014-06-08_13-51-55_260595134347_rgbf000068-resize_3-target.png,1000,1.8030000000000002,2.1336,7966,1001,feet,1009566,1132583,60.0
1134,832052,DepthScenes,duration_manipulation,ac,http://54.165.233.113/DepthDuration/depth_duration_Mturk/DepthDuration_HTML.html#12,12,2560,937,2560,1080,2-19-2021,10-12-46,175,depth_duration_stimuli/001158_2014-06-17_15-32-16_260595134347_rgbf000138-resize_2/001158_2014-06-17_15-32-16_260595134347_rgbf000138-resize_2-target.png,1000,4.5315,3.048,4129,1000,feet,1009566,1132583,60.0
1135,832052,DepthScenes,duration_manipulation,ac,http://54.165.233.113/DepthDuration/depth_duration_Mturk/DepthDuration_HTML.html#12,12,2560,937,2560,1080,2-19-2021,10-12-46,176,depth_duration_stimuli/002964_2014-06-08_17-46-11_094959634447_rgbf000091-resize_4/002964_2014-06-08_17-46-11_094959634447_rgbf000091-resize_4-target.png,1000,1.6909999999999998,1.6764000000000001,4447,1000,feet,1009566,1132583,60.0
1139,832052,DepthScenes,duration_manipulation,ac,http://54.165.233.113/DepthDuration/depth_duration_Mturk/DepthDuration_HTML.html#12,12,2560,937,2560,1080,2-19-2021,10-12-46,180,depth_duration_stimuli/001449_2014-06-19_17-01-27_260595134347_rgbf000116-resize_2/001449_2014-06-19_17-01-27_260595134347_rgbf000116-resize_2-target.png,1000,3.452,2.1336,4211,998,feet,1009566,1132583,60.0
1146,832052,DepthScenes,duration_manipulation,ac,http://54.165.233.113/DepthDuration/depth_duration_Mturk/DepthDuration_HTML.html#12,12,2560,937,2560,1080,2-19-2021,10-12-46,187,depth_duration_stimuli/000368_2014-06-09_15-53-01_260595134347_rgbf000155-resize_2/000368_2014-06-09_15-53-01_260595134347_rgbf000155-resize_2-target.png,1000,2.4859999999999998,1.8288000000000002,4431,1000,feet,1009566,1132583,60.0
1352,710719,DepthScenes,duration_manipulation,ar,http://54.165.233.113/DepthDuration/depth_duration_Mturk/DepthDuration_HTML.html#72,72,1920,937,1920,1080,2-19-2021,10-26-9,9,depth_duration_stimuli/000773_2014-06-08_22-24-54_260595134347_rgbf000093-resize_1/000773_2014-06-08_22-24-54_260595134347_rgbf000093-resize_1-target.png,1000,4.973,3.6576000000000004,3167,999,feet,732749,995931,39.0
1354,710719,DepthScenes,duration_manipulation,ar,http://54.165.233.113/DepthDuration/depth_duration_Mturk/DepthDuration_HTML.html#72,72,1920,937,1920,1080,2-19-2021,10-26-9,11,depth_duration_stimuli/001449_2014-06-19_17-01-27_260595134347_rgbf000116-resize_2/001449_2014-06-19_17-01-27_260595134347_rgbf000116-resize_2-target.png,1000,3.452,1.524,3088,999,feet,732749,995931,39.0
1366,710719,DepthScenes,duration_manipulation,ar,http://54.165.233.113/DepthDuration/depth_duration_Mturk/DepthDuration_HTML.html#72,72,1920,937,1920,1080,2-19-2021,10-26-9,23,depth_duration_stimuli/002600_2014-06-24_14-27-04_094959634447_rgbf000074-resize_2/002600_2014-06-24_14-27-04_094959634447_rgbf000074-resize_2-target.png,1000,2.7575,1.8288000000000002,3428,999,feet,732749,995931,39.0
1368,710719,DepthScenes,duration_manipulation,ar,http://54.165.233.113/DepthDuration/depth_duration_Mturk/DepthDuration_HTML.html#72,72,1920,937,1920,1080,2-19-2021,10-26-9,25,depth_duration_stimuli/002103_2014-06-25_20-00-40_260595134347_rgbf000049-resize_0/002103_2014-06-25_20-00-40_260595134347_rgbf000049-resize_0-target.png,1000,4.105,4.572,3188,994,feet,732749,995931,39.0
1371,710719,DepthScenes,duration_manipulation,ar,http://54.165.233.113/DepthDuration/depth_duration_Mturk/DepthDuration_HTML.html#72,72,1920,937,1920,1080,2-19-2021,10-26-9,28,depth_duration_stimuli/002365_2014-06-28_20-11-21_260595134347_rgbf000102-resize_1/002365_2014-06-28_20-11-21_260595134347_rgbf000102-resize_1-target.png,1000,4.013,3.6576000000000004,2720,999,feet,732749,995931,39.0
1372,710719,DepthScenes,duration_manipulation,ar,http://54.165.233.113/DepthDuration/depth_duration_Mturk/DepthDuration_HTML.html#72,72,1920,937,1920,1080,2-19-2021,10-26-9,29,depth_duration_stimuli/001059_2014-06-08_21-53-27_260595134347_rgbf000061-resize_4/001059_2014-06-08_21-53-27_260595134347_rgbf000061-resize_4-target.png,1000,2.4185,1.2192,3120,1000,feet,732749,995931,39.0
1373,710719,DepthScenes,duration_manipulation,ar,http://54.165.233.113/DepthDuration/depth_duration_Mturk/DepthDuration_HTML.html#72,72,1920,937,1920,1080,2-19-2021,10-26-9,30,depth_duration_stimuli/002549_2014-06-24_13-41-39_094959634447_rgbf000022-resize_3/002549_2014-06-24_13-41-39_094959634447_rgbf000022-resize_3-target.png,1000,1.476,0.6096,2584,1000,feet,732749,995931,39.0
1378,710719,DepthScenes,duration_manipulation,ar,http://54.165.233.113/DepthDuration/depth_duration_Mturk/DepthDuration_HTML.html#72,72,1920,937,1920,1080,2-19-2021,10-26-9,35,depth_duration_stimuli/000927_2014-06-09_16-32-30_260595134347_rgbf000123-resize_3/000927_2014-06-09_16-32-30_260595134347_rgbf000123-resize_3-target.png,1000,2.6785,1.8288000000000002,2690,999,feet,732749,995931,39.0
1381,710719,DepthScenes,duration_manipulation,ar,http://54.165.233.113/DepthDuration/depth_duration_Mturk/DepthDuration_HTML.html#72,72,1920,937,1920,1080,2-19-2021,10-26-9,38,depth_duration_stimuli/002425_2014-06-28_20-27-29_260595134347_rgbf000031-resize_8/002425_2014-06-28_20-27-29_260595134347_rgbf000031-resize_8-target.png,1000,3.8960000000000004,2.7432000000000003,3195,1001,feet,732749,995931,39.0
1386,710719,DepthScenes,duration_manipulation,ar,http://54.165.233.113/DepthDuration/depth_duration_Mturk/DepthDuration_HTML.html#72,72,1920,937,1920,1080,2-19-2021,10-26-9,43,depth_duration_stimuli/000549_2014-06-08_22-10-24_260595134347_rgbf000247-resize_3/000549_2014-06-08_22-10-24_260595134347_rgbf000247-resize_3-target.png,1000,1.841,0.6096,3242,1000,feet,732749,995931,39.0
1387,710719,DepthScenes,duration_manipulation,ar,http://54.165.233.113/DepthDuration/depth_duration_Mturk/DepthDuration_HTML.html#72,72,1920,937,1920,1080,2-19-2021,10-26-9,44,depth_duration_stimuli/001029_2014-06-08_13-17-57_260595134347_rgbf000065-resize_1/001029_2014-06-08_13-17-57_260595134347_rgbf000065-resize_1-target.png,1000,3.0835,1.2192,2798,999,feet,732749,995931,39.0
1388,710719,DepthScenes,duration_manipulation,ar,http://54.165.233.113/DepthDuration/depth_duration_Mturk/DepthDuration_HTML.html#72,72,1920,937,1920,1080,2-19-2021,10-26-9,45,depth_duration_stimuli/003228_2014-05-14_13-42-35_094959634447_rgbf000101-resize_1/003228_2014-05-14_13-42-35_094959634447_rgbf000101-resize_1-target.png,1000,1.9680000000000002,0.6096,3037,1000,feet,732749,995931,39.0
1402,710719,DepthScenes,duration_manipulation,ar,http://54.165.233.113/DepthDuration/depth_duration_Mturk/DepthDuration_HTML.html#72,72,1920,937,1920,1080,2-19-2021,10-26-9,59,depth_duration_stimuli/001100_2014-06-15_17-46-26_260595134347_rgbf000225-resize_2/001100_2014-06-15_17-46-26_260595134347_rgbf000225-resize_2-target.png,1000,2.24,0.9144000000000001,3143,999,feet,732749,995931,39.0
1407,710719,DepthScenes,duration_manipulation,ar,http://54.165.233.113/DepthDuration/depth_duration_Mturk/DepthDuration_HTML.html#72,72,1920,937,1920,1080,2-19-2021,10-26-9,64,depth_duration_stimuli/000137_2014-05-20_17-04-49_260595134347_rgbf000120-resize_1/000137_2014-05-20_17-04-49_260595134347_rgbf000120-resize_1-target.png,1000,3.786,3.9624,3358,999,feet,732749,995931,39.0
1408,710719,DepthScenes,duration_manipulation,ar,http://54.165.233.113/DepthDuration/depth_duration_Mturk/DepthDuration_HTML.html#72,72,1920,937,1920,1080,2-19-2021,10-26-9,65,depth_duration_stimuli/000409_2014-06-04_19-23-33_260595134347_rgbf000067-resize_0/000409_2014-06-04_19-23-33_260595134347_rgbf000067-resize_0-target.png,1000,3.7335,2.4384,3161,1000,feet,732749,995931,39.0
1411,710719,DepthScenes,duration_manipulation,ar,http://54.165.233.113/DepthDuration/depth_duration_Mturk/DepthDuration_HTML.html#72,72,1920,937,1920,1080,2-19-2021,10-26-9,68,depth_duration_stimuli/000878_2014-06-08_22-52-45_260595134347_rgbf000045-resize_2/000878_2014-06-08_22-52-45_260595134347_rgbf000045-resize_2-target.png,1000,2.092,1.2192,2522,983,feet,732749,995931,39.0
1414,710719,DepthScenes,duration_manipulation,ar,http://54.165.233.113/DepthDuration/depth_duration_Mturk/DepthDuration_HTML.html#72,72,1920,937,1920,1080,2-19-2021,10-26-9,71,depth_duration_stimuli/000780_2014-06-08_22-28-29_260595134347_rgbf000126-resize_1/000780_2014-06-08_22-28-29_260595134347_rgbf000126-resize_1-target.png,1000,3.3825,2.4384,3122,1001,feet,732749,995931,39.0
1416,710719,DepthScenes,duration_manipulation,ar,http://54.165.233.113/DepthDuration/depth_duration_Mturk/DepthDuration_HTML.html#72,72,1920,937,1920,1080,2-19-2021,10-26-9,73,depth_duration_stimuli/002057_2014-06-24_21-00-13_260595134347_rgbf000120-resize_1/002057_2014-06-24_21-00-13_260595134347_rgbf000120-resize_1-target.png,1000,2.967,3.048,3311,1000,feet,732749,995931,39.0
1418,710719,DepthScenes,duration_manipulation,ar,http://54.165.233.113/DepthDuration/depth_duration_Mturk/DepthDuration_HTML.html#72,72,1920,937,1920,1080,2-19-2021,10-26-9,75,depth_duration_stimuli/001136_2014-06-17_15-19-41_260595134347_rgbf000076-resize_3/001136_2014-06-17_15-19-41_260595134347_rgbf000076-resize_3-target.png,1000,1.8655,1.2192,2871,1000,feet,732749,995931,39.0
1423,710719,DepthScenes,duration_manipulation,ar,http://54.165.233.113/DepthDuration/depth_duration_Mturk/DepthDuration_HTML.html#72,72,1920,937,1920,1080,2-19-2021,10-26-9,80,depth_duration_stimuli/001066_2014-06-08_22-03-20_260595134347_rgbf000066-resize_4/001066_2014-06-08_22-03-20_260595134347_rgbf000066-resize_4-target.png,1000,4.2330000000000005,5.486400000000001,3125,1000,feet,732749,995931,39.0
1427,710719,DepthScenes,duration_manipulation,ar,http://54.165.233.113/DepthDuration/depth_duration_Mturk/DepthDuration_HTML.html#72,72,1920,937,1920,1080,2-19-2021,10-26-9,84,depth_duration_stimuli/003495_2014-05-21_16-01-51_094959634447_rgbf000100-resize_3/003495_2014-05-21_16-01-51_094959634447_rgbf000100-resize_3-target.png,1000,1.6255,0.9144000000000001,3096,999,feet,732749,995931,39.0
