,subjID,experimentName,versionName,sequenceName,url,selected_row,windowWidth,windowHeight,screenWidth,screenHeight,startDate,startTime,trial,stimulus,duration,actual_depth,depth_estimate,trial_RT,log_sceneDuration,unitSelection,experimentTime,totalTime,age
194,243745,DepthScenes,duration_manipulation,aw,http://54.165.233.113/DepthDuration/depth_duration_Mturk/DepthDuration_HTML.html#92,92,1024,768,1024,768,2-19-2021,10-10-37,3,depth_duration_stimuli/003490_2014-05-21_15-50-11_094959634447_rgbf000101-resize_3/003490_2014-05-21_15-50-11_094959634447_rgbf000101-resize_3-target.png,250,3.6445,0.9806094182825482,3061,245,feet,631587,777883,58.0
195,243745,DepthScenes,duration_manipulation,aw,http://54.165.233.113/DepthDuration/depth_duration_Mturk/DepthDuration_HTML.html#92,92,1024,768,1024,768,2-19-2021,10-10-37,4,depth_duration_stimuli/002987_2014-06-08_18-48-20_094959634447_rgbf000022-resize_0/002987_2014-06-08_18-48-20_094959634447_rgbf000022-resize_0-target.png,250,2.6775,0.7844875346260386,2843,250,feet,631587,777883,58.0
199,243745,DepthScenes,duration_manipulation,aw,http://54.165.233.113/DepthDuration/depth_duration_Mturk/DepthDuration_HTML.html#92,92,1024,768,1024,768,2-19-2021,10-10-37,8,depth_duration_stimuli/000636_2014-06-08_16-39-02_260595134347_rgbf000108-resize_4/000636_2014-06-08_16-39-02_260595134347_rgbf000108-resize_4-target.png,250,2.682,0.4903047091412741,2265,250,feet,631587,777883,58.0
209,243745,DepthScenes,duration_manipulation,aw,http://54.165.233.113/DepthDuration/depth_duration_Mturk/DepthDuration_HTML.html#92,92,1024,768,1024,768,2-19-2021,10-10-37,18,depth_duration_stimuli/002467_2014-06-28_20-38-07_260595134347_rgbf000026-resize_2/002467_2014-06-28_20-38-07_260595134347_rgbf000026-resize_2-target.png,250,4.742,1.176731301939058,2231,247,feet,631587,777883,58.0
210,243745,DepthScenes,duration_manipulation,aw,http://54.165.233.113/DepthDuration/depth_duration_Mturk/DepthDuration_HTML.html#92,92,1024,768,1024,768,2-19-2021,10-10-37,19,depth_duration_stimuli/000414_2014-06-04_19-49-13_260595134347_rgbf000044-resize_0/000414_2014-06-04_19-49-13_260595134347_rgbf000044-resize_0-target.png,250,4.329,1.176731301939058,2649,251,feet,631587,777883,58.0
212,243745,DepthScenes,duration_manipulation,aw,http://54.165.233.113/DepthDuration/depth_duration_Mturk/DepthDuration_HTML.html#92,92,1024,768,1024,768,2-19-2021,10-10-37,21,depth_duration_stimuli/001029_2014-06-08_13-17-57_260595134347_rgbf000065-resize_1/001029_2014-06-08_13-17-57_260595134347_rgbf000065-resize_1-target.png,250,3.0835,0.588365650969529,1867,250,feet,631587,777883,58.0
220,243745,DepthScenes,duration_manipulation,aw,http://54.165.233.113/DepthDuration/depth_duration_Mturk/DepthDuration_HTML.html#92,92,1024,768,1024,768,2-19-2021,10-10-37,29,depth_duration_stimuli/002199_2014-06-28_18-33-56_260595134347_rgbf000074-resize_0/002199_2014-06-28_18-33-56_260595134347_rgbf000074-resize_0-target.png,250,1.996,0.4903047091412741,1785,250,feet,631587,777883,58.0
234,243745,DepthScenes,duration_manipulation,aw,http://54.165.233.113/DepthDuration/depth_duration_Mturk/DepthDuration_HTML.html#92,92,1024,768,1024,768,2-19-2021,10-10-37,43,depth_duration_stimuli/002549_2014-06-24_13-41-39_094959634447_rgbf000022-resize_3/002549_2014-06-24_13-41-39_094959634447_rgbf000022-resize_3-target.png,250,1.476,0.4903047091412741,1706,250,feet,631587,777883,58.0
235,243745,DepthScenes,duration_manipulation,aw,http://54.165.233.113/DepthDuration/depth_duration_Mturk/DepthDuration_HTML.html#92,92,1024,768,1024,768,2-19-2021,10-10-37,44,depth_duration_stimuli/002323_2014-06-28_20-01-54_260595134347_rgbf000051-resize_4/002323_2014-06-28_20-01-54_260595134347_rgbf000051-resize_4-target.png,250,3.7310000000000003,1.4709141274238224,2247,249,feet,631587,777883,58.0
239,243745,DepthScenes,duration_manipulation,aw,http://54.165.233.113/DepthDuration/depth_duration_Mturk/DepthDuration_HTML.html#92,92,1024,768,1024,768,2-19-2021,10-10-37,48,depth_duration_stimuli/002209_2014-06-28_18-36-10_260595134347_rgbf000051-resize_1/002209_2014-06-28_18-36-10_260595134347_rgbf000051-resize_1-target.png,250,2.057,0.6864265927977837,2666,250,feet,631587,777883,58.0
242,243745,DepthScenes,duration_manipulation,aw,http://54.165.233.113/DepthDuration/depth_duration_Mturk/DepthDuration_HTML.html#92,92,1024,768,1024,768,2-19-2021,10-10-37,51,depth_duration_stimuli/002043_2014-06-24_20-29-38_260595134347_rgbf000039-resize_4/002043_2014-06-24_20-29-38_260595134347_rgbf000039-resize_4-target.png,250,2.8435,1.4709141274238224,2506,250,feet,631587,777883,58.0
244,243745,DepthScenes,duration_manipulation,aw,http://54.165.233.113/DepthDuration/depth_duration_Mturk/DepthDuration_HTML.html#92,92,1024,768,1024,768,2-19-2021,10-10-37,53,depth_duration_stimuli/001392_2014-06-19_16-07-59_260595134347_rgbf000046-resize_1/001392_2014-06-19_16-07-59_260595134347_rgbf000046-resize_1-target.png,250,4.135,1.5689750692520772,2650,251,feet,631587,777883,58.0
247,243745,DepthScenes,duration_manipulation,aw,http://54.165.233.113/DepthDuration/depth_duration_Mturk/DepthDuration_HTML.html#92,92,1024,768,1024,768,2-19-2021,10-10-37,56,depth_duration_stimuli/002989_2014-06-15_12-25-03_094959634447_rgbf000150-resize_3/002989_2014-06-15_12-25-03_094959634447_rgbf000150-resize_3-target.png,250,4.1975,1.176731301939058,2489,250,feet,631587,777883,58.0
251,243745,DepthScenes,duration_manipulation,aw,http://54.165.233.113/DepthDuration/depth_duration_Mturk/DepthDuration_HTML.html#92,92,1024,768,1024,768,2-19-2021,10-10-37,60,depth_duration_stimuli/000736_2014-06-08_18-24-15_260595134347_rgbf000206-resize_3/000736_2014-06-08_18-24-15_260595134347_rgbf000206-resize_3-target.png,250,3.515,1.4709141274238224,2299,250,feet,631587,777883,58.0
258,243745,DepthScenes,duration_manipulation,aw,http://54.165.233.113/DepthDuration/depth_duration_Mturk/DepthDuration_HTML.html#92,92,1024,768,1024,768,2-19-2021,10-10-37,67,depth_duration_stimuli/000522_2014-06-08_13-35-06_260595134347_rgbf000244-resize_1/000522_2014-06-08_13-35-06_260595134347_rgbf000244-resize_1-target.png,250,2.3715,0.2941828254847645,1929,250,feet,631587,777883,58.0
260,243745,DepthScenes,duration_manipulation,aw,http://54.165.233.113/DepthDuration/depth_duration_Mturk/DepthDuration_HTML.html#92,92,1024,768,1024,768,2-19-2021,10-10-37,69,depth_duration_stimuli/000866_2014-06-09_20-45-42_260595134347_rgbf000139-resize_1/000866_2014-06-09_20-45-42_260595134347_rgbf000139-resize_1-target.png,250,3.2155,0.4903047091412741,2010,250,feet,631587,777883,58.0
261,243745,DepthScenes,duration_manipulation,aw,http://54.165.233.113/DepthDuration/depth_duration_Mturk/DepthDuration_HTML.html#92,92,1024,768,1024,768,2-19-2021,10-10-37,70,depth_duration_stimuli/000555_2014-06-09_22-42-23_260595134347_rgbf000037-resize_4/000555_2014-06-09_22-42-23_260595134347_rgbf000037-resize_4-target.png,250,1.9765,0.7844875346260386,1929,250,feet,631587,777883,58.0
272,243745,DepthScenes,duration_manipulation,aw,http://54.165.233.113/DepthDuration/depth_duration_Mturk/DepthDuration_HTML.html#92,92,1024,768,1024,768,2-19-2021,10-10-37,81,depth_duration_stimuli/001150_2014-06-17_15-27-34_260595134347_rgbf000108-resize_2/001150_2014-06-17_15-27-34_260595134347_rgbf000108-resize_2-target.png,250,4.0325,0.8825484764542936,2778,251,feet,631587,777883,58.0
277,243745,DepthScenes,duration_manipulation,aw,http://54.165.233.113/DepthDuration/depth_duration_Mturk/DepthDuration_HTML.html#92,92,1024,768,1024,768,2-19-2021,10-10-37,86,depth_duration_stimuli/002788_2014-06-22_19-36-03_094959634447_rgbf000088-resize_2/002788_2014-06-22_19-36-03_094959634447_rgbf000088-resize_2-target.png,250,1.6465,0.6864265927977837,1898,250,feet,631587,777883,58.0
294,243745,DepthScenes,duration_manipulation,aw,http://54.165.233.113/DepthDuration/depth_duration_Mturk/DepthDuration_HTML.html#92,92,1024,768,1024,768,2-19-2021,10-10-37,103,depth_duration_stimuli/003288_2014-05-14_21-50-30_094959634447_rgbf000028-resize_3/003288_2014-05-14_21-50-30_094959634447_rgbf000028-resize_3-target.png,250,3.877,0.7844875346260386,2106,251,feet,631587,777883,58.0
301,243745,DepthScenes,duration_manipulation,aw,http://54.165.233.113/DepthDuration/depth_duration_Mturk/DepthDuration_HTML.html#92,92,1024,768,1024,768,2-19-2021,10-10-37,110,depth_duration_stimuli/002139_2014-06-25_21-19-37_260595134347_rgbf000124-resize_2/002139_2014-06-25_21-19-37_260595134347_rgbf000124-resize_2-target.png,250,2.1069999999999998,0.7844875346260386,2170,250,feet,631587,777883,58.0
310,243745,DepthScenes,duration_manipulation,aw,http://54.165.233.113/DepthDuration/depth_duration_Mturk/DepthDuration_HTML.html#92,92,1024,768,1024,768,2-19-2021,10-10-37,119,depth_duration_stimuli/002509_2014-06-24_13-19-22_094959634447_rgbf000077-resize_0/002509_2014-06-24_13-19-22_094959634447_rgbf000077-resize_0-target.png,250,1.3065,0.3922437673130193,1673,250,feet,631587,777883,58.0
311,243745,DepthScenes,duration_manipulation,aw,http://54.165.233.113/DepthDuration/depth_duration_Mturk/DepthDuration_HTML.html#92,92,1024,768,1024,768,2-19-2021,10-10-37,120,depth_duration_stimuli/001164_2014-06-17_15-35-46_260595134347_rgbf000085-resize_3/001164_2014-06-17_15-35-46_260595134347_rgbf000085-resize_3-target.png,250,2.354,0.7844875346260386,1882,251,feet,631587,777883,58.0
312,243745,DepthScenes,duration_manipulation,aw,http://54.165.233.113/DepthDuration/depth_duration_Mturk/DepthDuration_HTML.html#92,92,1024,768,1024,768,2-19-2021,10-10-37,121,depth_duration_stimuli/002630_2014-06-24_14-47-50_094959634447_rgbf000055-resize_1/002630_2014-06-24_14-47-50_094959634447_rgbf000055-resize_1-target.png,250,3.0095,1.0786703601108032,2266,250,feet,631587,777883,58.0
316,243745,DepthScenes,duration_manipulation,aw,http://54.165.233.113/DepthDuration/depth_duration_Mturk/DepthDuration_HTML.html#92,92,1024,768,1024,768,2-19-2021,10-10-37,125,depth_duration_stimuli/002365_2014-06-28_20-11-21_260595134347_rgbf000102-resize_1/002365_2014-06-28_20-11-21_260595134347_rgbf000102-resize_1-target.png,250,4.013,1.7650969529085871,2522,250,feet,631587,777883,58.0
318,243745,DepthScenes,duration_manipulation,aw,http://54.165.233.113/DepthDuration/depth_duration_Mturk/DepthDuration_HTML.html#92,92,1024,768,1024,768,2-19-2021,10-10-37,127,depth_duration_stimuli/001136_2014-06-17_15-19-41_260595134347_rgbf000076-resize_3/001136_2014-06-17_15-19-41_260595134347_rgbf000076-resize_3-target.png,250,1.8655,0.588365650969529,1929,249,feet,631587,777883,58.0
321,243745,DepthScenes,duration_manipulation,aw,http://54.165.233.113/DepthDuration/depth_duration_Mturk/DepthDuration_HTML.html#92,92,1024,768,1024,768,2-19-2021,10-10-37,130,depth_duration_stimuli/003070_2014-06-15_14-58-27_094959634447_rgbf000150-resize_3/003070_2014-06-15_14-58-27_094959634447_rgbf000150-resize_3-target.png,250,2.9415,0.9806094182825482,2777,249,feet,631587,777883,58.0
323,243745,DepthScenes,duration_manipulation,aw,http://54.165.233.113/DepthDuration/depth_duration_Mturk/DepthDuration_HTML.html#92,92,1024,768,1024,768,2-19-2021,10-10-37,132,depth_duration_stimuli/001016_2014-06-09_16-16-10_260595134347_rgbf000112-resize_5/001016_2014-06-09_16-16-10_260595134347_rgbf000112-resize_5-target.png,250,1.6565,0.7844875346260386,2218,250,feet,631587,777883,58.0
327,243745,DepthScenes,duration_manipulation,aw,http://54.165.233.113/DepthDuration/depth_duration_Mturk/DepthDuration_HTML.html#92,92,1024,768,1024,768,2-19-2021,10-10-37,136,depth_duration_stimuli/003129_2014-05-12_10-48-10_094959634447_rgbf000100-resize_0/003129_2014-05-12_10-48-10_094959634447_rgbf000100-resize_0-target.png,250,4.9305,1.5689750692520772,2234,251,feet,631587,777883,58.0
329,243745,DepthScenes,duration_manipulation,aw,http://54.165.233.113/DepthDuration/depth_duration_Mturk/DepthDuration_HTML.html#92,92,1024,768,1024,768,2-19-2021,10-10-37,138,depth_duration_stimuli/001815_2014-06-26_20-52-55_260595134347_rgbf000020-resize_0/001815_2014-06-26_20-52-55_260595134347_rgbf000020-resize_0-target.png,250,3.3865,0.9806094182825482,4440,250,feet,631587,777883,58.0
342,243745,DepthScenes,duration_manipulation,aw,http://54.165.233.113/DepthDuration/depth_duration_Mturk/DepthDuration_HTML.html#92,92,1024,768,1024,768,2-19-2021,10-10-37,151,depth_duration_stimuli/002988_2014-06-15_12-24-20_094959634447_rgbf000150-resize_1/002988_2014-06-15_12-24-20_094959634447_rgbf000150-resize_1-target.png,250,4.7669999999999995,0.9806094182825482,2186,250,feet,631587,777883,58.0
343,243745,DepthScenes,duration_manipulation,aw,http://54.165.233.113/DepthDuration/depth_duration_Mturk/DepthDuration_HTML.html#92,92,1024,768,1024,768,2-19-2021,10-10-37,152,depth_duration_stimuli/002131_2014-06-25_21-12-01_260595134347_rgbf000083-resize_0/002131_2014-06-25_21-12-01_260595134347_rgbf000083-resize_0-target.png,250,1.7685,0.8825484764542936,2234,255,feet,631587,777883,58.0
346,243745,DepthScenes,duration_manipulation,aw,http://54.165.233.113/DepthDuration/depth_duration_Mturk/DepthDuration_HTML.html#92,92,1024,768,1024,768,2-19-2021,10-10-37,155,depth_duration_stimuli/002425_2014-06-28_20-27-29_260595134347_rgbf000031-resize_8/002425_2014-06-28_20-27-29_260595134347_rgbf000031-resize_8-target.png,250,3.8960000000000004,0.7844875346260386,2075,250,feet,631587,777883,58.0
351,243745,DepthScenes,duration_manipulation,aw,http://54.165.233.113/DepthDuration/depth_duration_Mturk/DepthDuration_HTML.html#92,92,1024,768,1024,768,2-19-2021,10-10-37,160,depth_duration_stimuli/002964_2014-06-08_17-46-11_094959634447_rgbf000091-resize_4/002964_2014-06-08_17-46-11_094959634447_rgbf000091-resize_4-target.png,250,1.6909999999999998,0.3922437673130193,2906,253,feet,631587,777883,58.0
353,243745,DepthScenes,duration_manipulation,aw,http://54.165.233.113/DepthDuration/depth_duration_Mturk/DepthDuration_HTML.html#92,92,1024,768,1024,768,2-19-2021,10-10-37,162,depth_duration_stimuli/000800_2014-06-08_22-42-09_260595134347_rgbf000095-resize_3/000800_2014-06-08_22-42-09_260595134347_rgbf000095-resize_3-target.png,250,2.8,0.7844875346260386,1929,250,feet,631587,777883,58.0
356,243745,DepthScenes,duration_manipulation,aw,http://54.165.233.113/DepthDuration/depth_duration_Mturk/DepthDuration_HTML.html#92,92,1024,768,1024,768,2-19-2021,10-10-37,165,depth_duration_stimuli/001650_2014-06-20_12-09-00_260595134347_rgbf000087-resize_3/001650_2014-06-20_12-09-00_260595134347_rgbf000087-resize_3-target.png,250,1.9505,0.2941828254847645,1912,249,feet,631587,777883,58.0
362,243745,DepthScenes,duration_manipulation,aw,http://54.165.233.113/DepthDuration/depth_duration_Mturk/DepthDuration_HTML.html#92,92,1024,768,1024,768,2-19-2021,10-10-37,171,depth_duration_stimuli/000869_2014-06-09_20-50-18_260595134347_rgbf000060-resize_3/000869_2014-06-09_20-50-18_260595134347_rgbf000060-resize_3-target.png,250,2.266,0.6864265927977837,2057,250,feet,631587,777883,58.0
368,243745,DepthScenes,duration_manipulation,aw,http://54.165.233.113/DepthDuration/depth_duration_Mturk/DepthDuration_HTML.html#92,92,1024,768,1024,768,2-19-2021,10-10-37,177,depth_duration_stimuli/000493_2014-06-09_21-01-18_260595134347_rgbf000196-resize_3/000493_2014-06-09_21-01-18_260595134347_rgbf000196-resize_3-target.png,250,3.44,0.7844875346260386,1936,246,feet,631587,777883,58.0
371,243745,DepthScenes,duration_manipulation,aw,http://54.165.233.113/DepthDuration/depth_duration_Mturk/DepthDuration_HTML.html#92,92,1024,768,1024,768,2-19-2021,10-10-37,180,depth_duration_stimuli/000735_2014-06-08_18-23-50_260595134347_rgbf000163-resize_2/000735_2014-06-08_18-23-50_260595134347_rgbf000163-resize_2-target.png,250,4.1695,1.7650969529085871,2523,251,feet,631587,777883,58.0
384,563901,DepthScenes,duration_manipulation,av,http://54.165.233.113/DepthDuration/depth_duration_Mturk/DepthDuration_HTML.html#87,87,1680,907,1680,1050,2-19-2021,10-11-20,1,depth_duration_stimuli/001133_2014-06-17_14-49-16_260595134347_rgbf000100-resize_0/001133_2014-06-17_14-49-16_260595134347_rgbf000100-resize_0-target.png,250,4.2115,0.9266221952698603,5828,237,feet,1251830,1359344,56.0
393,563901,DepthScenes,duration_manipulation,av,http://54.165.233.113/DepthDuration/depth_duration_Mturk/DepthDuration_HTML.html#87,87,1680,907,1680,1050,2-19-2021,10-11-20,10,depth_duration_stimuli/000137_2014-05-20_17-04-49_260595134347_rgbf000120-resize_1/000137_2014-05-20_17-04-49_260595134347_rgbf000120-resize_1-target.png,250,3.786,0.9266221952698603,7423,251,feet,1251830,1359344,56.0
398,563901,DepthScenes,duration_manipulation,av,http://54.165.233.113/DepthDuration/depth_duration_Mturk/DepthDuration_HTML.html#87,87,1680,907,1680,1050,2-19-2021,10-11-20,15,depth_duration_stimuli/000522_2014-06-08_13-35-06_260595134347_rgbf000244-resize_1/000522_2014-06-08_13-35-06_260595134347_rgbf000244-resize_1-target.png,250,2.3715,0.3474833232261977,4030,249,feet,1251830,1359344,56.0
401,563901,DepthScenes,duration_manipulation,av,http://54.165.233.113/DepthDuration/depth_duration_Mturk/DepthDuration_HTML.html#87,87,1680,907,1680,1050,2-19-2021,10-11-20,18,depth_duration_stimuli/000549_2014-06-08_22-10-24_260595134347_rgbf000247-resize_3/000549_2014-06-08_22-10-24_260595134347_rgbf000247-resize_3-target.png,250,1.841,0.6949666464523954,22462,251,feet,1251830,1359344,56.0
405,563901,DepthScenes,duration_manipulation,av,http://54.165.233.113/DepthDuration/depth_duration_Mturk/DepthDuration_HTML.html#87,87,1680,907,1680,1050,2-19-2021,10-11-20,22,depth_duration_stimuli/002460_2014-06-28_20-35-43_260595134347_rgbf000028-resize_4/002460_2014-06-28_20-35-43_260595134347_rgbf000028-resize_4-target.png,250,2.269,0.5791388720436627,6504,258,feet,1251830,1359344,56.0
407,563901,DepthScenes,duration_manipulation,av,http://54.165.233.113/DepthDuration/depth_duration_Mturk/DepthDuration_HTML.html#87,87,1680,907,1680,1050,2-19-2021,10-11-20,24,depth_duration_stimuli/000830_2014-06-04_19-49-31_260595134347_rgbf000096-resize_2/000830_2014-06-04_19-49-31_260595134347_rgbf000096-resize_2-target.png,250,2.6353333333332998,0.8107944208611277,5453,252,feet,1251830,1359344,56.0
410,563901,DepthScenes,duration_manipulation,av,http://54.165.233.113/DepthDuration/depth_duration_Mturk/DepthDuration_HTML.html#87,87,1680,907,1680,1050,2-19-2021,10-11-20,27,depth_duration_stimuli/000943_2014-06-09_19-31-07_260595134347_rgbf000128-resize_1/000943_2014-06-09_19-31-07_260595134347_rgbf000128-resize_1-target.png,250,1.9765,0.6949666464523954,3741,251,feet,1251830,1359344,56.0
412,563901,DepthScenes,duration_manipulation,av,http://54.165.233.113/DepthDuration/depth_duration_Mturk/DepthDuration_HTML.html#87,87,1680,907,1680,1050,2-19-2021,10-11-20,29,depth_duration_stimuli/000436_2014-06-09_22-25-11_260595134347_rgbf000137-resize_1/000436_2014-06-09_22-25-11_260595134347_rgbf000137-resize_1-target.png,250,4.0705,1.3899332929047907,5630,226,feet,1251830,1359344,56.0
415,563901,DepthScenes,duration_manipulation,av,http://54.165.233.113/DepthDuration/depth_duration_Mturk/DepthDuration_HTML.html#87,87,1680,907,1680,1050,2-19-2021,10-11-20,32,depth_duration_stimuli/000917_2014-06-09_22-45-29_260595134347_rgbf000149-resize_3/000917_2014-06-09_22-45-29_260595134347_rgbf000149-resize_3-target.png,250,4.1865,1.1582777440873253,4024,252,feet,1251830,1359344,56.0
422,563901,DepthScenes,duration_manipulation,av,http://54.165.233.113/DepthDuration/depth_duration_Mturk/DepthDuration_HTML.html#87,87,1680,907,1680,1050,2-19-2021,10-11-20,39,depth_duration_stimuli/000493_2014-06-09_21-01-18_260595134347_rgbf000196-resize_3/000493_2014-06-09_21-01-18_260595134347_rgbf000196-resize_3-target.png,250,3.44,1.1582777440873253,4824,249,feet,1251830,1359344,56.0
423,563901,DepthScenes,duration_manipulation,av,http://54.165.233.113/DepthDuration/depth_duration_Mturk/DepthDuration_HTML.html#87,87,1680,907,1680,1050,2-19-2021,10-11-20,40,depth_duration_stimuli/000469_2014-06-09_19-42-10_260595134347_rgbf000081-resize_1/000469_2014-06-09_19-42-10_260595134347_rgbf000081-resize_1-target.png,250,1.652,0.5791388720436627,3885,250,feet,1251830,1359344,56.0
428,563901,DepthScenes,duration_manipulation,av,http://54.165.233.113/DepthDuration/depth_duration_Mturk/DepthDuration_HTML.html#87,87,1680,907,1680,1050,2-19-2021,10-11-20,45,depth_duration_stimuli/003423_2014-05-21_10-23-26_094959634447_rgbf002665-resize_2/003423_2014-05-21_10-23-26_094959634447_rgbf002665-resize_2-target.png,250,3.2575,1.1582777440873253,4626,248,feet,1251830,1359344,56.0
432,563901,DepthScenes,duration_manipulation,av,http://54.165.233.113/DepthDuration/depth_duration_Mturk/DepthDuration_HTML.html#87,87,1680,907,1680,1050,2-19-2021,10-11-20,49,depth_duration_stimuli/002468_2014-06-28_20-38-39_260595134347_rgbf000045-resize_1/002468_2014-06-28_20-38-39_260595134347_rgbf000045-resize_1-target.png,250,1.956,1.3899332929047907,4471,256,feet,1251830,1359344,56.0
439,563901,DepthScenes,duration_manipulation,av,http://54.165.233.113/DepthDuration/depth_duration_Mturk/DepthDuration_HTML.html#87,87,1680,907,1680,1050,2-19-2021,10-11-20,56,depth_duration_stimuli/002209_2014-06-28_18-36-10_260595134347_rgbf000051-resize_1/002209_2014-06-28_18-36-10_260595134347_rgbf000051-resize_1-target.png,250,2.057,0.6949666464523954,3756,251,feet,1251830,1359344,56.0
442,563901,DepthScenes,duration_manipulation,av,http://54.165.233.113/DepthDuration/depth_duration_Mturk/DepthDuration_HTML.html#87,87,1680,907,1680,1050,2-19-2021,10-11-20,59,depth_duration_stimuli/002305_2014-06-28_19-56-50_260595134347_rgbf000102-resize_7/002305_2014-06-28_19-56-50_260595134347_rgbf000102-resize_7-target.png,250,4.8725,1.1582777440873253,3907,260,feet,1251830,1359344,56.0
446,563901,DepthScenes,duration_manipulation,av,http://54.165.233.113/DepthDuration/depth_duration_Mturk/DepthDuration_HTML.html#87,87,1680,907,1680,1050,2-19-2021,10-11-20,63,depth_duration_stimuli/001150_2014-06-17_15-27-34_260595134347_rgbf000108-resize_2/001150_2014-06-17_15-27-34_260595134347_rgbf000108-resize_2-target.png,250,4.0325,0.9266221952698603,4279,209,feet,1251830,1359344,56.0
448,563901,DepthScenes,duration_manipulation,av,http://54.165.233.113/DepthDuration/depth_duration_Mturk/DepthDuration_HTML.html#87,87,1680,907,1680,1050,2-19-2021,10-11-20,65,depth_duration_stimuli/001029_2014-06-08_13-17-57_260595134347_rgbf000065-resize_1/001029_2014-06-08_13-17-57_260595134347_rgbf000065-resize_1-target.png,250,3.0835,0.6949666464523954,6053,250,feet,1251830,1359344,56.0
455,563901,DepthScenes,duration_manipulation,av,http://54.165.233.113/DepthDuration/depth_duration_Mturk/DepthDuration_HTML.html#87,87,1680,907,1680,1050,2-19-2021,10-11-20,72,depth_duration_stimuli/001235_2014-06-17_16-37-36_260595134347_rgbf000084-resize_4/001235_2014-06-17_16-37-36_260595134347_rgbf000084-resize_4-target.png,250,3.6605,0.6949666464523954,4610,251,feet,1251830,1359344,56.0
458,563901,DepthScenes,duration_manipulation,av,http://54.165.233.113/DepthDuration/depth_duration_Mturk/DepthDuration_HTML.html#87,87,1680,907,1680,1050,2-19-2021,10-11-20,75,depth_duration_stimuli/001618_2014-06-20_11-37-31_260595134347_rgbf000027-resize_3/001618_2014-06-20_11-37-31_260595134347_rgbf000027-resize_3-target.png,250,1.8725,0.6949666464523954,4655,236,feet,1251830,1359344,56.0
460,563901,DepthScenes,duration_manipulation,av,http://54.165.233.113/DepthDuration/depth_duration_Mturk/DepthDuration_HTML.html#87,87,1680,907,1680,1050,2-19-2021,10-11-20,77,depth_duration_stimuli/003070_2014-06-15_14-58-27_094959634447_rgbf000150-resize_3/003070_2014-06-15_14-58-27_094959634447_rgbf000150-resize_3-target.png,250,2.9415,0.9266221952698603,4543,247,feet,1251830,1359344,56.0
463,563901,DepthScenes,duration_manipulation,av,http://54.165.233.113/DepthDuration/depth_duration_Mturk/DepthDuration_HTML.html#87,87,1680,907,1680,1050,2-19-2021,10-11-20,80,depth_duration_stimuli/000109_2014-05-14_23-41-52_260595134347_rgbf000035-resize_9/000109_2014-05-14_23-41-52_260595134347_rgbf000035-resize_9-target.png,250,1.3545,0.3474833232261977,3960,249,feet,1251830,1359344,56.0
468,563901,DepthScenes,duration_manipulation,av,http://54.165.233.113/DepthDuration/depth_duration_Mturk/DepthDuration_HTML.html#87,87,1680,907,1680,1050,2-19-2021,10-11-20,85,depth_duration_stimuli/000414_2014-06-04_19-49-13_260595134347_rgbf000044-resize_0/000414_2014-06-04_19-49-13_260595134347_rgbf000044-resize_0-target.png,250,4.329,0.5791388720436627,8783,259,feet,1251830,1359344,56.0
470,563901,DepthScenes,duration_manipulation,av,http://54.165.233.113/DepthDuration/depth_duration_Mturk/DepthDuration_HTML.html#87,87,1680,907,1680,1050,2-19-2021,10-11-20,87,depth_duration_stimuli/003621_2014-05-23_18-06-08_094959634447_rgbf000101-resize_1/003621_2014-05-23_18-06-08_094959634447_rgbf000101-resize_1-target.png,250,3.9835,1.3899332929047907,6313,328,feet,1251830,1359344,56.0
475,563901,DepthScenes,duration_manipulation,av,http://54.165.233.113/DepthDuration/depth_duration_Mturk/DepthDuration_HTML.html#87,87,1680,907,1680,1050,2-19-2021,10-11-20,92,depth_duration_stimuli/000869_2014-06-09_20-50-18_260595134347_rgbf000060-resize_3/000869_2014-06-09_20-50-18_260595134347_rgbf000060-resize_3-target.png,250,2.266,0.6949666464523954,3538,239,feet,1251830,1359344,56.0
485,563901,DepthScenes,duration_manipulation,av,http://54.165.233.113/DepthDuration/depth_duration_Mturk/DepthDuration_HTML.html#87,87,1680,907,1680,1050,2-19-2021,10-11-20,102,depth_duration_stimuli/002748_2014-06-22_19-07-22_094959634447_rgbf000078-resize_1/002748_2014-06-22_19-07-22_094959634447_rgbf000078-resize_1-target.png,250,4.6705,1.8532443905397207,6030,252,feet,1251830,1359344,56.0
487,563901,DepthScenes,duration_manipulation,av,http://54.165.233.113/DepthDuration/depth_duration_Mturk/DepthDuration_HTML.html#87,87,1680,907,1680,1050,2-19-2021,10-11-20,104,depth_duration_stimuli/002630_2014-06-24_14-47-50_094959634447_rgbf000055-resize_1/002630_2014-06-24_14-47-50_094959634447_rgbf000055-resize_1-target.png,250,3.0095,1.3899332929047907,6762,251,feet,1251830,1359344,56.0
490,563901,DepthScenes,duration_manipulation,av,http://54.165.233.113/DepthDuration/depth_duration_Mturk/DepthDuration_HTML.html#87,87,1680,907,1680,1050,2-19-2021,10-11-20,107,depth_duration_stimuli/002279_2014-06-28_18-55-32_260595134347_rgbf000040-resize_5/002279_2014-06-28_18-55-32_260595134347_rgbf000040-resize_5-target.png,250,1.5043333333333,0.6949666464523954,4063,238,feet,1251830,1359344,56.0
492,563901,DepthScenes,duration_manipulation,av,http://54.165.233.113/DepthDuration/depth_duration_Mturk/DepthDuration_HTML.html#87,87,1680,907,1680,1050,2-19-2021,10-11-20,109,depth_duration_stimuli/003338_2014-05-20_11-01-23_094959634447_rgbf000051-resize_6/003338_2014-05-20_11-01-23_094959634447_rgbf000051-resize_6-target.png,250,1.693,0.46331109763493017,3798,247,feet,1251830,1359344,56.0
499,563901,DepthScenes,duration_manipulation,av,http://54.165.233.113/DepthDuration/depth_duration_Mturk/DepthDuration_HTML.html#87,87,1680,907,1680,1050,2-19-2021,10-11-20,116,depth_duration_stimuli/002678_2014-06-13_16-15-32_094959634447_rgbf000151-resize_6/002678_2014-06-13_16-15-32_094959634447_rgbf000151-resize_6-target.png,250,2.1830000000000003,0.9266221952698603,3764,250,feet,1251830,1359344,56.0
501,563901,DepthScenes,duration_manipulation,av,http://54.165.233.113/DepthDuration/depth_duration_Mturk/DepthDuration_HTML.html#87,87,1680,907,1680,1050,2-19-2021,10-11-20,118,depth_duration_stimuli/001197_2014-06-17_16-01-50_260595134347_rgbf000103-resize_4/001197_2014-06-17_16-01-50_260595134347_rgbf000103-resize_4-target.png,250,3.4025,1.1582777440873253,5089,270,feet,1251830,1359344,56.0
511,563901,DepthScenes,duration_manipulation,av,http://54.165.233.113/DepthDuration/depth_duration_Mturk/DepthDuration_HTML.html#87,87,1680,907,1680,1050,2-19-2021,10-11-20,128,depth_duration_stimuli/002987_2014-06-08_18-48-20_094959634447_rgbf000022-resize_0/002987_2014-06-08_18-48-20_094959634447_rgbf000022-resize_0-target.png,250,2.6775,0.9266221952698603,22671,260,feet,1251830,1359344,56.0
515,563901,DepthScenes,duration_manipulation,av,http://54.165.233.113/DepthDuration/depth_duration_Mturk/DepthDuration_HTML.html#87,87,1680,907,1680,1050,2-19-2021,10-11-20,132,depth_duration_stimuli/002375_2014-06-28_20-13-44_260595134347_rgbf000032-resize_1/002375_2014-06-28_20-13-44_260595134347_rgbf000032-resize_1-target.png,250,4.0175,0.9266221952698603,4273,257,feet,1251830,1359344,56.0
516,563901,DepthScenes,duration_manipulation,av,http://54.165.233.113/DepthDuration/depth_duration_Mturk/DepthDuration_HTML.html#87,87,1680,907,1680,1050,2-19-2021,10-11-20,133,depth_duration_stimuli/000505_2014-06-08_23-03-23_260595134347_rgbf000091-resize_0/000505_2014-06-08_23-03-23_260595134347_rgbf000091-resize_0-target.png,250,3.3105,0.46331109763493017,6614,248,feet,1251830,1359344,56.0
523,563901,DepthScenes,duration_manipulation,av,http://54.165.233.113/DepthDuration/depth_duration_Mturk/DepthDuration_HTML.html#87,87,1680,907,1680,1050,2-19-2021,10-11-20,140,depth_duration_stimuli/002444_2014-06-28_20-32-08_260595134347_rgbf000027-resize_0/002444_2014-06-28_20-32-08_260595134347_rgbf000027-resize_0-target.png,250,4.388999999999999,0.9266221952698603,4122,252,feet,1251830,1359344,56.0
526,563901,DepthScenes,duration_manipulation,av,http://54.165.233.113/DepthDuration/depth_duration_Mturk/DepthDuration_HTML.html#87,87,1680,907,1680,1050,2-19-2021,10-11-20,143,depth_duration_stimuli/002136_2014-06-25_21-18-03_260595134347_rgbf000109-resize_3/002136_2014-06-25_21-18-03_260595134347_rgbf000109-resize_3-target.png,250,1.9569999999999999,0.6949666464523954,3714,257,feet,1251830,1359344,56.0
527,563901,DepthScenes,duration_manipulation,av,http://54.165.233.113/DepthDuration/depth_duration_Mturk/DepthDuration_HTML.html#87,87,1680,907,1680,1050,2-19-2021,10-11-20,144,depth_duration_stimuli/000906_2014-06-08_13-35-43_260595134347_rgbf000155-resize_1/000906_2014-06-08_13-35-43_260595134347_rgbf000155-resize_1-target.png,250,2.8489999999999998,1.1582777440873253,5246,251,feet,1251830,1359344,56.0
532,563901,DepthScenes,duration_manipulation,av,http://54.165.233.113/DepthDuration/depth_duration_Mturk/DepthDuration_HTML.html#87,87,1680,907,1680,1050,2-19-2021,10-11-20,149,depth_duration_stimuli/001092_2014-06-15_17-34-58_260595134347_rgbf000171-resize_3/001092_2014-06-15_17-34-58_260595134347_rgbf000171-resize_3-target.png,250,2.6935,0.6949666464523954,3758,253,feet,1251830,1359344,56.0
545,563901,DepthScenes,duration_manipulation,av,http://54.165.233.113/DepthDuration/depth_duration_Mturk/DepthDuration_HTML.html#87,87,1680,907,1680,1050,2-19-2021,10-11-20,162,depth_duration_stimuli/003490_2014-05-21_15-50-11_094959634447_rgbf000101-resize_3/003490_2014-05-21_15-50-11_094959634447_rgbf000101-resize_3-target.png,250,3.6445,1.3899332929047907,5499,263,feet,1251830,1359344,56.0
548,563901,DepthScenes,duration_manipulation,av,http://54.165.233.113/DepthDuration/depth_duration_Mturk/DepthDuration_HTML.html#87,87,1680,907,1680,1050,2-19-2021,10-11-20,165,depth_duration_stimuli/002131_2014-06-25_21-12-01_260595134347_rgbf000083-resize_0/002131_2014-06-25_21-12-01_260595134347_rgbf000083-resize_0-target.png,250,1.7685,1.8532443905397207,4143,255,feet,1251830,1359344,56.0
549,563901,DepthScenes,duration_manipulation,av,http://54.165.233.113/DepthDuration/depth_duration_Mturk/DepthDuration_HTML.html#87,87,1680,907,1680,1050,2-19-2021,10-11-20,166,depth_duration_stimuli/001724_2014-06-26_19-28-50_260595134347_rgbf000037-resize_7/001724_2014-06-26_19-28-50_260595134347_rgbf000037-resize_7-target.png,250,3.827,2.3165554881746506,4585,244,feet,1251830,1359344,56.0
550,563901,DepthScenes,duration_manipulation,av,http://54.165.233.113/DepthDuration/depth_duration_Mturk/DepthDuration_HTML.html#87,87,1680,907,1680,1050,2-19-2021,10-11-20,167,depth_duration_stimuli/001011_2014-06-08_23-18-54_260595134347_rgbf000044-resize_4/001011_2014-06-08_23-18-54_260595134347_rgbf000044-resize_4-target.png,250,2.4730000000000003,1.8532443905397207,4014,239,feet,1251830,1359344,56.0
561,563901,DepthScenes,duration_manipulation,av,http://54.165.233.113/DepthDuration/depth_duration_Mturk/DepthDuration_HTML.html#87,87,1680,907,1680,1050,2-19-2021,10-11-20,178,depth_duration_stimuli/000800_2014-06-08_22-42-09_260595134347_rgbf000095-resize_3/000800_2014-06-08_22-42-09_260595134347_rgbf000095-resize_3-target.png,250,2.8,0.5791388720436627,4708,172,feet,1251830,1359344,56.0
563,563901,DepthScenes,duration_manipulation,av,http://54.165.233.113/DepthDuration/depth_duration_Mturk/DepthDuration_HTML.html#87,87,1680,907,1680,1050,2-19-2021,10-11-20,180,depth_duration_stimuli/000739_2014-06-08_18-45-58_260595134347_rgbf000068-resize_1/000739_2014-06-08_18-45-58_260595134347_rgbf000068-resize_1-target.png,250,3.534,1.1582777440873253,6310,252,feet,1251830,1359344,56.0
567,563901,DepthScenes,duration_manipulation,av,http://54.165.233.113/DepthDuration/depth_duration_Mturk/DepthDuration_HTML.html#87,87,1680,907,1680,1050,2-19-2021,10-11-20,184,depth_duration_stimuli/001555_2014-06-20_17-12-10_260595134347_rgbf000065-resize_4/001555_2014-06-20_17-12-10_260595134347_rgbf000065-resize_4-target.png,250,1.633,0.46331109763493017,3838,257,feet,1251830,1359344,56.0
569,563901,DepthScenes,duration_manipulation,av,http://54.165.233.113/DepthDuration/depth_duration_Mturk/DepthDuration_HTML.html#87,87,1680,907,1680,1050,2-19-2021,10-11-20,186,depth_duration_stimuli/003534_2014-05-22_15-06-10_094959634447_rgbf000102-resize_4/003534_2014-05-22_15-06-10_094959634447_rgbf000102-resize_4-target.png,250,1.426,0.46331109763493017,4544,239,feet,1251830,1359344,56.0
570,563901,DepthScenes,duration_manipulation,av,http://54.165.233.113/DepthDuration/depth_duration_Mturk/DepthDuration_HTML.html#87,87,1680,907,1680,1050,2-19-2021,10-11-20,187,depth_duration_stimuli/001828_2014-06-26_21-40-03_260595134347_rgbf000024-resize_0/001828_2014-06-26_21-40-03_260595134347_rgbf000024-resize_0-target.png,250,4.8260000000000005,1.8532443905397207,6530,261,feet,1251830,1359344,56.0
572,563901,DepthScenes,duration_manipulation,av,http://54.165.233.113/DepthDuration/depth_duration_Mturk/DepthDuration_HTML.html#87,87,1680,907,1680,1050,2-19-2021,10-11-20,189,depth_duration_stimuli/001417_2014-06-19_16-25-36_260595134347_rgbf000115-resize_5/001417_2014-06-19_16-25-36_260595134347_rgbf000115-resize_5-target.png,250,4.6255,1.8532443905397207,4898,276,feet,1251830,1359344,56.0
573,563901,DepthScenes,duration_manipulation,av,http://54.165.233.113/DepthDuration/depth_duration_Mturk/DepthDuration_HTML.html#87,87,1680,907,1680,1050,2-19-2021,10-11-20,190,depth_duration_stimuli/003083_2014-06-15_15-21-03_094959634447_rgbf000063-resize_1/003083_2014-06-15_15-21-03_094959634447_rgbf000063-resize_1-target.png,250,4.1405,2.3165554881746506,4451,278,feet,1251830,1359344,56.0
582,846649,DepthScenes,duration_manipulation,aj,http://54.165.233.113/DepthDuration/depth_duration_Mturk/DepthDuration_HTML.html#39,39,1366,768,1366,768,2-19-2021,10-11-2,7,depth_duration_stimuli/002344_2014-06-28_20-06-29_260595134347_rgbf000030-resize_1/002344_2014-06-28_20-06-29_260595134347_rgbf000030-resize_1-target.png,250,1.5795,0.3761194029850746,1578,250,meters,1036210,1351972,35.0
590,846649,DepthScenes,duration_manipulation,aj,http://54.165.233.113/DepthDuration/depth_duration_Mturk/DepthDuration_HTML.html#39,39,1366,768,1366,768,2-19-2021,10-11-2,15,depth_duration_stimuli/000691_2014-06-08_13-08-50_260595134347_rgbf000132-resize_3/000691_2014-06-08_13-08-50_260595134347_rgbf000132-resize_3-target.png,250,4.1530000000000005,0.9402985074626866,1370,250,meters,1036210,1351972,35.0
594,846649,DepthScenes,duration_manipulation,aj,http://54.165.233.113/DepthDuration/depth_duration_Mturk/DepthDuration_HTML.html#39,39,1366,768,1366,768,2-19-2021,10-11-2,19,depth_duration_stimuli/000878_2014-06-08_22-52-45_260595134347_rgbf000045-resize_2/000878_2014-06-08_22-52-45_260595134347_rgbf000045-resize_2-target.png,250,2.092,1.128358208955224,1538,250,meters,1036210,1351972,35.0
599,846649,DepthScenes,duration_manipulation,aj,http://54.165.233.113/DepthDuration/depth_duration_Mturk/DepthDuration_HTML.html#39,39,1366,768,1366,768,2-19-2021,10-11-2,24,depth_duration_stimuli/002953_2014-06-08_17-32-18_094959634447_rgbf000059-resize_5/002953_2014-06-08_17-32-18_094959634447_rgbf000059-resize_5-target.png,250,1.551,0.7522388059701492,1664,250,meters,1036210,1351972,35.0
601,846649,DepthScenes,duration_manipulation,aj,http://54.165.233.113/DepthDuration/depth_duration_Mturk/DepthDuration_HTML.html#39,39,1366,768,1366,768,2-19-2021,10-11-2,26,depth_duration_stimuli/001214_2014-06-17_16-13-55_260595134347_rgbf000111-resize_0/001214_2014-06-17_16-13-55_260595134347_rgbf000111-resize_0-target.png,250,2.6505,0.9402985074626866,1433,250,meters,1036210,1351972,35.0
605,846649,DepthScenes,duration_manipulation,aj,http://54.165.233.113/DepthDuration/depth_duration_Mturk/DepthDuration_HTML.html#39,39,1366,768,1366,768,2-19-2021,10-11-2,30,depth_duration_stimuli/002375_2014-06-28_20-13-44_260595134347_rgbf000032-resize_1/002375_2014-06-28_20-13-44_260595134347_rgbf000032-resize_1-target.png,250,4.0175,1.128358208955224,1593,250,meters,1036210,1351972,35.0
607,846649,DepthScenes,duration_manipulation,aj,http://54.165.233.113/DepthDuration/depth_duration_Mturk/DepthDuration_HTML.html#39,39,1366,768,1366,768,2-19-2021,10-11-2,32,depth_duration_stimuli/003490_2014-05-21_15-50-11_094959634447_rgbf000101-resize_3/003490_2014-05-21_15-50-11_094959634447_rgbf000101-resize_3-target.png,250,3.6445,0.7522388059701492,1442,250,meters,1036210,1351972,35.0
609,846649,DepthScenes,duration_manipulation,aj,http://54.165.233.113/DepthDuration/depth_duration_Mturk/DepthDuration_HTML.html#39,39,1366,768,1366,768,2-19-2021,10-11-2,34,depth_duration_stimuli/000758_2014-06-08_22-05-08_260595134347_rgbf000085-resize_0/000758_2014-06-08_22-05-08_260595134347_rgbf000085-resize_0-target.png,250,3.3810000000000002,0.9402985074626866,1507,250,meters,1036210,1351972,35.0
611,846649,DepthScenes,duration_manipulation,aj,http://54.165.233.113/DepthDuration/depth_duration_Mturk/DepthDuration_HTML.html#39,39,1366,768,1366,768,2-19-2021,10-11-2,36,depth_duration_stimuli/002988_2014-06-15_12-24-20_094959634447_rgbf000150-resize_1/002988_2014-06-15_12-24-20_094959634447_rgbf000150-resize_1-target.png,250,4.7669999999999995,1.128358208955224,5370,250,meters,1036210,1351972,35.0
612,846649,DepthScenes,duration_manipulation,aj,http://54.165.233.113/DepthDuration/depth_duration_Mturk/DepthDuration_HTML.html#39,39,1366,768,1366,768,2-19-2021,10-11-2,37,depth_duration_stimuli/000869_2014-06-09_20-50-18_260595134347_rgbf000060-resize_3/000869_2014-06-09_20-50-18_260595134347_rgbf000060-resize_3-target.png,250,2.266,1.3164179104477614,3171,250,meters,1036210,1351972,35.0
622,846649,DepthScenes,duration_manipulation,aj,http://54.165.233.113/DepthDuration/depth_duration_Mturk/DepthDuration_HTML.html#39,39,1366,768,1366,768,2-19-2021,10-11-2,47,depth_duration_stimuli/001132_2014-06-17_14-48-54_260595134347_rgbf000100-resize_2/001132_2014-06-17_14-48-54_260595134347_rgbf000100-resize_2-target.png,250,3.753,0.9402985074626866,2226,250,meters,1036210,1351972,35.0
623,846649,DepthScenes,duration_manipulation,aj,http://54.165.233.113/DepthDuration/depth_duration_Mturk/DepthDuration_HTML.html#39,39,1366,768,1366,768,2-19-2021,10-11-2,48,depth_duration_stimuli/000740_2014-06-08_18-46-23_260595134347_rgbf000049-resize_6/000740_2014-06-08_18-46-23_260595134347_rgbf000049-resize_6-target.png,250,1.6869999999999998,0.3761194029850746,2234,249,meters,1036210,1351972,35.0
629,846649,DepthScenes,duration_manipulation,aj,http://54.165.233.113/DepthDuration/depth_duration_Mturk/DepthDuration_HTML.html#39,39,1366,768,1366,768,2-19-2021,10-11-2,54,depth_duration_stimuli/001815_2014-06-26_20-52-55_260595134347_rgbf000020-resize_0/001815_2014-06-26_20-52-55_260595134347_rgbf000020-resize_0-target.png,250,3.3865,0.9402985074626866,2173,250,meters,1036210,1351972,35.0
632,846649,DepthScenes,duration_manipulation,aj,http://54.165.233.113/DepthDuration/depth_duration_Mturk/DepthDuration_HTML.html#39,39,1366,768,1366,768,2-19-2021,10-11-2,57,depth_duration_stimuli/000906_2014-06-08_13-35-43_260595134347_rgbf000155-resize_1/000906_2014-06-08_13-35-43_260595134347_rgbf000155-resize_1-target.png,250,2.8489999999999998,1.8805970149253732,3017,250,meters,1036210,1351972,35.0
635,846649,DepthScenes,duration_manipulation,aj,http://54.165.233.113/DepthDuration/depth_duration_Mturk/DepthDuration_HTML.html#39,39,1366,768,1366,768,2-19-2021,10-11-2,60,depth_duration_stimuli/001724_2014-06-26_19-28-50_260595134347_rgbf000037-resize_7/001724_2014-06-26_19-28-50_260595134347_rgbf000037-resize_7-target.png,250,3.827,1.128358208955224,1937,250,meters,1036210,1351972,35.0
645,846649,DepthScenes,duration_manipulation,aj,http://54.165.233.113/DepthDuration/depth_duration_Mturk/DepthDuration_HTML.html#39,39,1366,768,1366,768,2-19-2021,10-11-2,70,depth_duration_stimuli/000830_2014-06-04_19-49-31_260595134347_rgbf000096-resize_2/000830_2014-06-04_19-49-31_260595134347_rgbf000096-resize_2-target.png,250,2.6353333333332998,1.128358208955224,1937,250,meters,1036210,1351972,35.0
646,846649,DepthScenes,duration_manipulation,aj,http://54.165.233.113/DepthDuration/depth_duration_Mturk/DepthDuration_HTML.html#39,39,1366,768,1366,768,2-19-2021,10-11-2,71,depth_duration_stimuli/003092_2014-06-24_21-01-49_094959634447_rgbf000049-resize_2/003092_2014-06-24_21-01-49_094959634447_rgbf000049-resize_2-target.png,250,1.666,0.9402985074626866,1921,250,meters,1036210,1351972,35.0
647,846649,DepthScenes,duration_manipulation,aj,http://54.165.233.113/DepthDuration/depth_duration_Mturk/DepthDuration_HTML.html#39,39,1366,768,1366,768,2-19-2021,10-11-2,72,depth_duration_stimuli/001188_2014-06-17_15-54-10_260595134347_rgbf000090-resize_2/001188_2014-06-17_15-54-10_260595134347_rgbf000090-resize_2-target.png,250,2.7439999999999998,0.9402985074626866,1970,250,meters,1036210,1351972,35.0
653,846649,DepthScenes,duration_manipulation,aj,http://54.165.233.113/DepthDuration/depth_duration_Mturk/DepthDuration_HTML.html#39,39,1366,768,1366,768,2-19-2021,10-11-2,78,depth_duration_stimuli/000414_2014-06-04_19-49-13_260595134347_rgbf000044-resize_0/000414_2014-06-04_19-49-13_260595134347_rgbf000044-resize_0-target.png,250,4.329,1.128358208955224,1450,250,meters,1036210,1351972,35.0
660,846649,DepthScenes,duration_manipulation,aj,http://54.165.233.113/DepthDuration/depth_duration_Mturk/DepthDuration_HTML.html#39,39,1366,768,1366,768,2-19-2021,10-11-2,85,depth_duration_stimuli/000692_2014-06-08_13-09-42_260595134347_rgbf000199-resize_2/000692_2014-06-08_13-09-42_260595134347_rgbf000199-resize_2-target.png,250,3.661,1.128358208955224,1594,250,meters,1036210,1351972,35.0
661,846649,DepthScenes,duration_manipulation,aj,http://54.165.233.113/DepthDuration/depth_duration_Mturk/DepthDuration_HTML.html#39,39,1366,768,1366,768,2-19-2021,10-11-2,86,depth_duration_stimuli/001289_2014-06-16_16-25-52_260595134347_rgbf000067-resize_1/001289_2014-06-16_16-25-52_260595134347_rgbf000067-resize_1-target.png,250,1.8835,0.3761194029850746,1705,249,meters,1036210,1351972,35.0
663,846649,DepthScenes,duration_manipulation,aj,http://54.165.233.113/DepthDuration/depth_duration_Mturk/DepthDuration_HTML.html#39,39,1366,768,1366,768,2-19-2021,10-11-2,88,depth_duration_stimuli/000103_2014-05-14_22-01-17_260595134347_rgbf000152-resize_5/000103_2014-05-14_22-01-17_260595134347_rgbf000152-resize_5-target.png,250,1.993,1.128358208955224,2034,257,meters,1036210,1351972,35.0
666,846649,DepthScenes,duration_manipulation,aj,http://54.165.233.113/DepthDuration/depth_duration_Mturk/DepthDuration_HTML.html#39,39,1366,768,1366,768,2-19-2021,10-11-2,91,depth_duration_stimuli/003083_2014-06-15_15-21-03_094959634447_rgbf000063-resize_1/003083_2014-06-15_15-21-03_094959634447_rgbf000063-resize_1-target.png,250,4.1405,0.9402985074626866,1744,249,meters,1036210,1351972,35.0
672,846649,DepthScenes,duration_manipulation,aj,http://54.165.233.113/DepthDuration/depth_duration_Mturk/DepthDuration_HTML.html#39,39,1366,768,1366,768,2-19-2021,10-11-2,97,depth_duration_stimuli/002153_2014-06-25_21-27-18_260595134347_rgbf000038-resize_5/002153_2014-06-25_21-27-18_260595134347_rgbf000038-resize_5-target.png,250,2.505,1.128358208955224,1634,250,meters,1036210,1351972,35.0
675,846649,DepthScenes,duration_manipulation,aj,http://54.165.233.113/DepthDuration/depth_duration_Mturk/DepthDuration_HTML.html#39,39,1366,768,1366,768,2-19-2021,10-11-2,100,depth_duration_stimuli/002639_2014-06-24_14-51-37_094959634447_rgbf000074-resize_4/002639_2014-06-24_14-51-37_094959634447_rgbf000074-resize_4-target.png,250,4.0375,0.9402985074626866,1586,250,meters,1036210,1351972,35.0
677,846649,DepthScenes,duration_manipulation,aj,http://54.165.233.113/DepthDuration/depth_duration_Mturk/DepthDuration_HTML.html#39,39,1366,768,1366,768,2-19-2021,10-11-2,102,depth_duration_stimuli/001584_2014-06-20_11-07-43_260595134347_rgbf000002-resize_1/001584_2014-06-20_11-07-43_260595134347_rgbf000002-resize_1-target.png,250,3.53,1.128358208955224,7126,252,meters,1036210,1351972,35.0
684,846649,DepthScenes,duration_manipulation,aj,http://54.165.233.113/DepthDuration/depth_duration_Mturk/DepthDuration_HTML.html#39,39,1366,768,1366,768,2-19-2021,10-11-2,109,depth_duration_stimuli/001417_2014-06-19_16-25-36_260595134347_rgbf000115-resize_5/001417_2014-06-19_16-25-36_260595134347_rgbf000115-resize_5-target.png,250,4.6255,1.128358208955224,2529,250,meters,1036210,1351972,35.0
685,846649,DepthScenes,duration_manipulation,aj,http://54.165.233.113/DepthDuration/depth_duration_Mturk/DepthDuration_HTML.html#39,39,1366,768,1366,768,2-19-2021,10-11-2,110,depth_duration_stimuli/000866_2014-06-09_20-45-42_260595134347_rgbf000139-resize_1/000866_2014-06-09_20-45-42_260595134347_rgbf000139-resize_1-target.png,250,3.2155,0.9402985074626866,2106,249,meters,1036210,1351972,35.0
694,846649,DepthScenes,duration_manipulation,aj,http://54.165.233.113/DepthDuration/depth_duration_Mturk/DepthDuration_HTML.html#39,39,1366,768,1366,768,2-19-2021,10-11-2,119,depth_duration_stimuli/003228_2014-05-14_13-42-35_094959634447_rgbf000101-resize_1/003228_2014-05-14_13-42-35_094959634447_rgbf000101-resize_1-target.png,250,1.9680000000000002,0.9402985074626866,3906,250,meters,1036210,1351972,35.0
697,846649,DepthScenes,duration_manipulation,aj,http://54.165.233.113/DepthDuration/depth_duration_Mturk/DepthDuration_HTML.html#39,39,1366,768,1366,768,2-19-2021,10-11-2,122,depth_duration_stimuli/002905_2014-06-03_18-04-43_094959634447_rgbf000151-resize_2/002905_2014-06-03_18-04-43_094959634447_rgbf000151-resize_2-target.png,250,2.0295,1.128358208955224,4858,250,meters,1036210,1351972,35.0
700,846649,DepthScenes,duration_manipulation,aj,http://54.165.233.113/DepthDuration/depth_duration_Mturk/DepthDuration_HTML.html#39,39,1366,768,1366,768,2-19-2021,10-11-2,125,depth_duration_stimuli/002750_2014-06-22_19-08-03_094959634447_rgbf000094-resize_4/002750_2014-06-22_19-08-03_094959634447_rgbf000094-resize_4-target.png,250,2.354,0.9402985074626866,2635,250,meters,1036210,1351972,35.0
701,846649,DepthScenes,duration_manipulation,aj,http://54.165.233.113/DepthDuration/depth_duration_Mturk/DepthDuration_HTML.html#39,39,1366,768,1366,768,2-19-2021,10-11-2,126,depth_duration_stimuli/000810_2014-06-08_17-20-01_260595134347_rgbf000105-resize_0/000810_2014-06-08_17-20-01_260595134347_rgbf000105-resize_0-target.png,250,1.4865,0.3761194029850746,1665,250,meters,1036210,1351972,35.0
707,846649,DepthScenes,duration_manipulation,aj,http://54.165.233.113/DepthDuration/depth_duration_Mturk/DepthDuration_HTML.html#39,39,1366,768,1366,768,2-19-2021,10-11-2,132,depth_duration_stimuli/002748_2014-06-22_19-07-22_094959634447_rgbf000078-resize_1/002748_2014-06-22_19-07-22_094959634447_rgbf000078-resize_1-target.png,250,4.6705,1.128358208955224,1650,250,meters,1036210,1351972,35.0
714,846649,DepthScenes,duration_manipulation,aj,http://54.165.233.113/DepthDuration/depth_duration_Mturk/DepthDuration_HTML.html#39,39,1366,768,1366,768,2-19-2021,10-11-2,139,depth_duration_stimuli/000493_2014-06-09_21-01-18_260595134347_rgbf000196-resize_3/000493_2014-06-09_21-01-18_260595134347_rgbf000196-resize_3-target.png,250,3.44,1.3164179104477614,1770,250,meters,1036210,1351972,35.0
716,846649,DepthScenes,duration_manipulation,aj,http://54.165.233.113/DepthDuration/depth_duration_Mturk/DepthDuration_HTML.html#39,39,1366,768,1366,768,2-19-2021,10-11-2,141,depth_duration_stimuli/001650_2014-06-20_12-09-00_260595134347_rgbf000087-resize_3/001650_2014-06-20_12-09-00_260595134347_rgbf000087-resize_3-target.png,250,1.9505,1.128358208955224,1505,250,meters,1036210,1351972,35.0
725,846649,DepthScenes,duration_manipulation,aj,http://54.165.233.113/DepthDuration/depth_duration_Mturk/DepthDuration_HTML.html#39,39,1366,768,1366,768,2-19-2021,10-11-2,150,depth_duration_stimuli/001055_2014-06-08_18-45-35_260595134347_rgbf000111-resize_4/001055_2014-06-08_18-45-35_260595134347_rgbf000111-resize_4-target.png,250,2.4290000000000003,0.9402985074626866,1441,250,meters,1036210,1351972,35.0
727,846649,DepthScenes,duration_manipulation,aj,http://54.165.233.113/DepthDuration/depth_duration_Mturk/DepthDuration_HTML.html#39,39,1366,768,1366,768,2-19-2021,10-11-2,152,depth_duration_stimuli/000773_2014-06-08_22-24-54_260595134347_rgbf000093-resize_1/000773_2014-06-08_22-24-54_260595134347_rgbf000093-resize_1-target.png,250,4.973,0.564179104477612,1521,250,meters,1036210,1351972,35.0
744,846649,DepthScenes,duration_manipulation,aj,http://54.165.233.113/DepthDuration/depth_duration_Mturk/DepthDuration_HTML.html#39,39,1366,768,1366,768,2-19-2021,10-11-2,169,depth_duration_stimuli/002568_2014-06-24_13-59-21_094959634447_rgbf000062-resize_4/002568_2014-06-24_13-59-21_094959634447_rgbf000062-resize_4-target.png,250,3.015,1.128358208955224,2714,250,meters,1036210,1351972,35.0
745,846649,DepthScenes,duration_manipulation,aj,http://54.165.233.113/DepthDuration/depth_duration_Mturk/DepthDuration_HTML.html#39,39,1366,768,1366,768,2-19-2021,10-11-2,170,depth_duration_stimuli/002464_2014-06-28_20-36-57_260595134347_rgbf000029-resize_0/002464_2014-06-28_20-36-57_260595134347_rgbf000029-resize_0-target.png,250,3.9525,1.6925373134328359,2431,249,meters,1036210,1351972,35.0
747,846649,DepthScenes,duration_manipulation,aj,http://54.165.233.113/DepthDuration/depth_duration_Mturk/DepthDuration_HTML.html#39,39,1366,768,1366,768,2-19-2021,10-11-2,172,depth_duration_stimuli/000470_2014-06-09_19-42-40_260595134347_rgbf000094-resize_1/000470_2014-06-09_19-42-40_260595134347_rgbf000094-resize_1-target.png,250,1.831,0.7522388059701492,1554,250,meters,1036210,1351972,35.0
749,846649,DepthScenes,duration_manipulation,aj,http://54.165.233.113/DepthDuration/depth_duration_Mturk/DepthDuration_HTML.html#39,39,1366,768,1366,768,2-19-2021,10-11-2,174,depth_duration_stimuli/002784_2014-06-22_19-26-30_094959634447_rgbf000083-resize_3/002784_2014-06-22_19-26-30_094959634447_rgbf000083-resize_3-target.png,250,1.8046666666667,0.7522388059701492,1483,250,meters,1036210,1351972,35.0
752,846649,DepthScenes,duration_manipulation,aj,http://54.165.233.113/DepthDuration/depth_duration_Mturk/DepthDuration_HTML.html#39,39,1366,768,1366,768,2-19-2021,10-11-2,177,depth_duration_stimuli/001029_2014-06-08_13-17-57_260595134347_rgbf000065-resize_1/001029_2014-06-08_13-17-57_260595134347_rgbf000065-resize_1-target.png,250,3.0835,0.9402985074626866,1754,251,meters,1036210,1351972,35.0
753,846649,DepthScenes,duration_manipulation,aj,http://54.165.233.113/DepthDuration/depth_duration_Mturk/DepthDuration_HTML.html#39,39,1366,768,1366,768,2-19-2021,10-11-2,178,depth_duration_stimuli/001264_2014-06-16_16-10-23_260595134347_rgbf000109-resize_1/001264_2014-06-16_16-10-23_260595134347_rgbf000109-resize_1-target.png,250,2.9665,1.128358208955224,2067,250,meters,1036210,1351972,35.0
755,846649,DepthScenes,duration_manipulation,aj,http://54.165.233.113/DepthDuration/depth_duration_Mturk/DepthDuration_HTML.html#39,39,1366,768,1366,768,2-19-2021,10-11-2,180,depth_duration_stimuli/003492_2014-05-21_15-50-55_094959634447_rgbf000828-resize_1/003492_2014-05-21_15-50-55_094959634447_rgbf000828-resize_1-target.png,250,4.06875,0.9402985074626866,1561,250,meters,1036210,1351972,35.0
760,846649,DepthScenes,duration_manipulation,aj,http://54.165.233.113/DepthDuration/depth_duration_Mturk/DepthDuration_HTML.html#39,39,1366,768,1366,768,2-19-2021,10-11-2,185,depth_duration_stimuli/002989_2014-06-15_12-25-03_094959634447_rgbf000150-resize_3/002989_2014-06-15_12-25-03_094959634447_rgbf000150-resize_3-target.png,250,4.1975,1.6925373134328359,2985,249,meters,1036210,1351972,35.0
763,846649,DepthScenes,duration_manipulation,aj,http://54.165.233.113/DepthDuration/depth_duration_Mturk/DepthDuration_HTML.html#39,39,1366,768,1366,768,2-19-2021,10-11-2,188,depth_duration_stimuli/000927_2014-06-09_16-32-30_260595134347_rgbf000123-resize_3/000927_2014-06-09_16-32-30_260595134347_rgbf000123-resize_3-target.png,250,2.6785,0.564179104477612,3682,250,meters,1036210,1351972,35.0
765,846649,DepthScenes,duration_manipulation,aj,http://54.165.233.113/DepthDuration/depth_duration_Mturk/DepthDuration_HTML.html#39,39,1366,768,1366,768,2-19-2021,10-11-2,190,depth_duration_stimuli/000483_2014-06-09_20-41-45_260595134347_rgbf000116-resize_4/000483_2014-06-09_20-41-45_260595134347_rgbf000116-resize_4-target.png,250,1.337,0.9402985074626866,2961,249,meters,1036210,1351972,35.0
774,319259,DepthScenes,duration_manipulation,ak,http://54.165.233.113/DepthDuration/depth_duration_Mturk/DepthDuration_HTML.html#43,43,1920,1007,1920,1080,2-19-2021,10-11-5,7,depth_duration_stimuli/003092_2014-06-24_21-01-49_094959634447_rgbf000049-resize_2/003092_2014-06-24_21-01-49_094959634447_rgbf000049-resize_2-target.png,250,1.666,0.6153846153846153,2073,249,feet,654257,693304,30.0
776,319259,DepthScenes,duration_manipulation,ak,http://54.165.233.113/DepthDuration/depth_duration_Mturk/DepthDuration_HTML.html#43,43,1920,1007,1920,1080,2-19-2021,10-11-5,9,depth_duration_stimuli/003083_2014-06-15_15-21-03_094959634447_rgbf000063-resize_1/003083_2014-06-15_15-21-03_094959634447_rgbf000063-resize_1-target.png,250,4.1405,0.6153846153846153,2457,250,feet,654257,693304,30.0
777,319259,DepthScenes,duration_manipulation,ak,http://54.165.233.113/DepthDuration/depth_duration_Mturk/DepthDuration_HTML.html#43,43,1920,1007,1920,1080,2-19-2021,10-11-5,10,depth_duration_stimuli/003129_2014-05-12_10-48-10_094959634447_rgbf000100-resize_0/003129_2014-05-12_10-48-10_094959634447_rgbf000100-resize_0-target.png,250,4.9305,1.0769230769230766,2828,250,feet,654257,693304,30.0
781,319259,DepthScenes,duration_manipulation,ak,http://54.165.233.113/DepthDuration/depth_duration_Mturk/DepthDuration_HTML.html#43,43,1920,1007,1920,1080,2-19-2021,10-11-5,14,depth_duration_stimuli/000414_2014-06-04_19-49-13_260595134347_rgbf000044-resize_0/000414_2014-06-04_19-49-13_260595134347_rgbf000044-resize_0-target.png,250,4.329,2.307692307692307,2307,250,feet,654257,693304,30.0
786,319259,DepthScenes,duration_manipulation,ak,http://54.165.233.113/DepthDuration/depth_duration_Mturk/DepthDuration_HTML.html#43,43,1920,1007,1920,1080,2-19-2021,10-11-5,19,depth_duration_stimuli/001617_2014-06-20_11-35-32_260595134347_rgbf000066-resize_1/001617_2014-06-20_11-35-32_260595134347_rgbf000066-resize_1-target.png,250,3.7910000000000004,3.076923076923076,2563,249,feet,654257,693304,30.0
792,319259,DepthScenes,duration_manipulation,ak,http://54.165.233.113/DepthDuration/depth_duration_Mturk/DepthDuration_HTML.html#43,43,1920,1007,1920,1080,2-19-2021,10-11-5,25,depth_duration_stimuli/000709_2014-06-08_13-51-55_260595134347_rgbf000068-resize_3/000709_2014-06-08_13-51-55_260595134347_rgbf000068-resize_3-target.png,250,1.8030000000000002,0.769230769230769,3043,250,feet,654257,693304,30.0
793,319259,DepthScenes,duration_manipulation,ak,http://54.165.233.113/DepthDuration/depth_duration_Mturk/DepthDuration_HTML.html#43,43,1920,1007,1920,1080,2-19-2021,10-11-5,26,depth_duration_stimuli/000635_2014-06-08_16-38-42_260595134347_rgbf000106-resize_1/000635_2014-06-08_16-38-42_260595134347_rgbf000106-resize_1-target.png,250,2.074,0.769230769230769,2202,250,feet,654257,693304,30.0
804,319259,DepthScenes,duration_manipulation,ak,http://54.165.233.113/DepthDuration/depth_duration_Mturk/DepthDuration_HTML.html#43,43,1920,1007,1920,1080,2-19-2021,10-11-5,37,depth_duration_stimuli/000505_2014-06-08_23-03-23_260595134347_rgbf000091-resize_0/000505_2014-06-08_23-03-23_260595134347_rgbf000091-resize_0-target.png,250,3.3105,0.15384615384615383,2281,250,feet,654257,693304,30.0
805,319259,DepthScenes,duration_manipulation,ak,http://54.165.233.113/DepthDuration/depth_duration_Mturk/DepthDuration_HTML.html#43,43,1920,1007,1920,1080,2-19-2021,10-11-5,38,depth_duration_stimuli/002579_2014-06-24_14-08-03_094959634447_rgbf000061-resize_2/002579_2014-06-24_14-08-03_094959634447_rgbf000061-resize_2-target.png,250,2.223125,0.46153846153846145,1852,250,feet,654257,693304,30.0
806,319259,DepthScenes,duration_manipulation,ak,http://54.165.233.113/DepthDuration/depth_duration_Mturk/DepthDuration_HTML.html#43,43,1920,1007,1920,1080,2-19-2021,10-11-5,39,depth_duration_stimuli/002953_2014-06-08_17-32-18_094959634447_rgbf000059-resize_5/002953_2014-06-08_17-32-18_094959634447_rgbf000059-resize_5-target.png,250,1.551,0.30769230769230765,1962,250,feet,654257,693304,30.0
810,319259,DepthScenes,duration_manipulation,ak,http://54.165.233.113/DepthDuration/depth_duration_Mturk/DepthDuration_HTML.html#43,43,1920,1007,1920,1080,2-19-2021,10-11-5,43,depth_duration_stimuli/002758_2014-06-22_19-11-20_094959634447_rgbf000128-resize_1/002758_2014-06-22_19-11-20_094959634447_rgbf000128-resize_1-target.png,250,2.555,0.769230769230769,1986,250,feet,654257,693304,30.0
811,319259,DepthScenes,duration_manipulation,ak,http://54.165.233.113/DepthDuration/depth_duration_Mturk/DepthDuration_HTML.html#43,43,1920,1007,1920,1080,2-19-2021,10-11-5,44,depth_duration_stimuli/003621_2014-05-23_18-06-08_094959634447_rgbf000101-resize_1/003621_2014-05-23_18-06-08_094959634447_rgbf000101-resize_1-target.png,250,3.9835,1.538461538461538,1892,251,feet,654257,693304,30.0
818,319259,DepthScenes,duration_manipulation,ak,http://54.165.233.113/DepthDuration/depth_duration_Mturk/DepthDuration_HTML.html#43,43,1920,1007,1920,1080,2-19-2021,10-11-5,51,depth_duration_stimuli/001164_2014-06-17_15-35-46_260595134347_rgbf000085-resize_3/001164_2014-06-17_15-35-46_260595134347_rgbf000085-resize_3-target.png,250,2.354,0.9230769230769229,1843,250,feet,654257,693304,30.0
820,319259,DepthScenes,duration_manipulation,ak,http://54.165.233.113/DepthDuration/depth_duration_Mturk/DepthDuration_HTML.html#43,43,1920,1007,1920,1080,2-19-2021,10-11-5,53,depth_duration_stimuli/000854_2014-06-09_19-43-13_260595134347_rgbf000066-resize_0/000854_2014-06-09_19-43-13_260595134347_rgbf000066-resize_0-target.png,250,3.068,0.6153846153846153,2186,250,feet,654257,693304,30.0
827,319259,DepthScenes,duration_manipulation,ak,http://54.165.233.113/DepthDuration/depth_duration_Mturk/DepthDuration_HTML.html#43,43,1920,1007,1920,1080,2-19-2021,10-11-5,60,depth_duration_stimuli/000009_2014-05-26_14-32-05_260595134347_rgbf000034-resize_3/000009_2014-05-26_14-32-05_260595134347_rgbf000034-resize_3-target.png,250,3.8715,1.8461538461538458,2107,250,feet,654257,693304,30.0
835,319259,DepthScenes,duration_manipulation,ak,http://54.165.233.113/DepthDuration/depth_duration_Mturk/DepthDuration_HTML.html#43,43,1920,1007,1920,1080,2-19-2021,10-11-5,68,depth_duration_stimuli/000878_2014-06-08_22-52-45_260595134347_rgbf000045-resize_2/000878_2014-06-08_22-52-45_260595134347_rgbf000045-resize_2-target.png,250,2.092,0.769230769230769,1873,248,feet,654257,693304,30.0
836,319259,DepthScenes,duration_manipulation,ak,http://54.165.233.113/DepthDuration/depth_duration_Mturk/DepthDuration_HTML.html#43,43,1920,1007,1920,1080,2-19-2021,10-11-5,69,depth_duration_stimuli/002639_2014-06-24_14-51-37_094959634447_rgbf000074-resize_4/002639_2014-06-24_14-51-37_094959634447_rgbf000074-resize_4-target.png,250,4.0375,0.9230769230769229,2601,250,feet,654257,693304,30.0
846,319259,DepthScenes,duration_manipulation,ak,http://54.165.233.113/DepthDuration/depth_duration_Mturk/DepthDuration_HTML.html#43,43,1920,1007,1920,1080,2-19-2021,10-11-5,79,depth_duration_stimuli/002375_2014-06-28_20-13-44_260595134347_rgbf000032-resize_1/002375_2014-06-28_20-13-44_260595134347_rgbf000032-resize_1-target.png,250,4.0175,0.9230769230769229,2065,249,feet,654257,693304,30.0
858,319259,DepthScenes,duration_manipulation,ak,http://54.165.233.113/DepthDuration/depth_duration_Mturk/DepthDuration_HTML.html#43,43,1920,1007,1920,1080,2-19-2021,10-11-5,91,depth_duration_stimuli/002136_2014-06-25_21-18-03_260595134347_rgbf000109-resize_3/002136_2014-06-25_21-18-03_260595134347_rgbf000109-resize_3-target.png,250,1.9569999999999999,0.46153846153846145,1860,250,feet,654257,693304,30.0
860,319259,DepthScenes,duration_manipulation,ak,http://54.165.233.113/DepthDuration/depth_duration_Mturk/DepthDuration_HTML.html#43,43,1920,1007,1920,1080,2-19-2021,10-11-5,93,depth_duration_stimuli/001571_2014-06-20_17-21-32_260595134347_rgbf000089-resize_1/001571_2014-06-20_17-21-32_260595134347_rgbf000089-resize_1-target.png,250,1.86,0.46153846153846145,2610,250,feet,654257,693304,30.0
861,319259,DepthScenes,duration_manipulation,ak,http://54.165.233.113/DepthDuration/depth_duration_Mturk/DepthDuration_HTML.html#43,43,1920,1007,1920,1080,2-19-2021,10-11-5,94,depth_duration_stimuli/000521_2014-06-08_13-34-35_260595134347_rgbf000191-resize_2/000521_2014-06-08_13-34-35_260595134347_rgbf000191-resize_2-target.png,250,3.0385,0.46153846153846145,1948,249,feet,654257,693304,30.0
862,319259,DepthScenes,duration_manipulation,ak,http://54.165.233.113/DepthDuration/depth_duration_Mturk/DepthDuration_HTML.html#43,43,1920,1007,1920,1080,2-19-2021,10-11-5,95,depth_duration_stimuli/002118_2014-06-25_20-32-08_260595134347_rgbf000078-resize_1/002118_2014-06-25_20-32-08_260595134347_rgbf000078-resize_1-target.png,250,2.6460000000000004,0.46153846153846145,1961,249,feet,654257,693304,30.0
863,319259,DepthScenes,duration_manipulation,ak,http://54.165.233.113/DepthDuration/depth_duration_Mturk/DepthDuration_HTML.html#43,43,1920,1007,1920,1080,2-19-2021,10-11-5,96,depth_duration_stimuli/002637_2014-06-24_14-51-13_094959634447_rgbf000066-resize_4/002637_2014-06-24_14-51-13_094959634447_rgbf000066-resize_4-target.png,250,1.9955,0.6153846153846153,1945,249,feet,654257,693304,30.0
867,319259,DepthScenes,duration_manipulation,ak,http://54.165.233.113/DepthDuration/depth_duration_Mturk/DepthDuration_HTML.html#43,43,1920,1007,1920,1080,2-19-2021,10-11-5,100,depth_duration_stimuli/001828_2014-06-26_21-40-03_260595134347_rgbf000024-resize_0/001828_2014-06-26_21-40-03_260595134347_rgbf000024-resize_0-target.png,250,4.8260000000000005,1.2307692307692306,3242,249,feet,654257,693304,30.0
870,319259,DepthScenes,duration_manipulation,ak,http://54.165.233.113/DepthDuration/depth_duration_Mturk/DepthDuration_HTML.html#43,43,1920,1007,1920,1080,2-19-2021,10-11-5,103,depth_duration_stimuli/000109_2014-05-14_23-41-52_260595134347_rgbf000035-resize_9/000109_2014-05-14_23-41-52_260595134347_rgbf000035-resize_9-target.png,250,1.3545,0.6153846153846153,2072,249,feet,654257,693304,30.0
877,319259,DepthScenes,duration_manipulation,ak,http://54.165.233.113/DepthDuration/depth_duration_Mturk/DepthDuration_HTML.html#43,43,1920,1007,1920,1080,2-19-2021,10-11-5,110,depth_duration_stimuli/001055_2014-06-08_18-45-35_260595134347_rgbf000111-resize_4/001055_2014-06-08_18-45-35_260595134347_rgbf000111-resize_4-target.png,250,2.4290000000000003,0.6153846153846153,2362,249,feet,654257,693304,30.0
882,319259,DepthScenes,duration_manipulation,ak,http://54.165.233.113/DepthDuration/depth_duration_Mturk/DepthDuration_HTML.html#43,43,1920,1007,1920,1080,2-19-2021,10-11-5,115,depth_duration_stimuli/001806_2014-06-26_20-50-20_260595134347_rgbf000091-resize_1/001806_2014-06-26_20-50-20_260595134347_rgbf000091-resize_1-target.png,250,2.7305,0.46153846153846145,1987,250,feet,654257,693304,30.0
889,319259,DepthScenes,duration_manipulation,ak,http://54.165.233.113/DepthDuration/depth_duration_Mturk/DepthDuration_HTML.html#43,43,1920,1007,1920,1080,2-19-2021,10-11-5,122,depth_duration_stimuli/000642_2014-06-08_16-59-25_260595134347_rgbf000098-resize_2/000642_2014-06-08_16-59-25_260595134347_rgbf000098-resize_2-target.png,250,2.8815,0.769230769230769,1995,250,feet,654257,693304,30.0
890,319259,DepthScenes,duration_manipulation,ak,http://54.165.233.113/DepthDuration/depth_duration_Mturk/DepthDuration_HTML.html#43,43,1920,1007,1920,1080,2-19-2021,10-11-5,123,depth_duration_stimuli/001181_2014-06-17_15-50-57_260595134347_rgbf000106-resize_4/001181_2014-06-17_15-50-57_260595134347_rgbf000106-resize_4-target.png,250,4.149,1.538461538461538,2051,250,feet,654257,693304,30.0
893,319259,DepthScenes,duration_manipulation,ak,http://54.165.233.113/DepthDuration/depth_duration_Mturk/DepthDuration_HTML.html#43,43,1920,1007,1920,1080,2-19-2021,10-11-5,126,depth_duration_stimuli/000753_2014-06-08_21-57-44_260595134347_rgbf000123-resize_3/000753_2014-06-08_21-57-44_260595134347_rgbf000123-resize_3-target.png,250,1.916,0.46153846153846145,2665,249,feet,654257,693304,30.0
896,319259,DepthScenes,duration_manipulation,ak,http://54.165.233.113/DepthDuration/depth_duration_Mturk/DepthDuration_HTML.html#43,43,1920,1007,1920,1080,2-19-2021,10-11-5,129,depth_duration_stimuli/000436_2014-06-09_22-25-11_260595134347_rgbf000137-resize_1/000436_2014-06-09_22-25-11_260595134347_rgbf000137-resize_1-target.png,250,4.0705,1.8461538461538458,2106,249,feet,654257,693304,30.0
897,319259,DepthScenes,duration_manipulation,ak,http://54.165.233.113/DepthDuration/depth_duration_Mturk/DepthDuration_HTML.html#43,43,1920,1007,1920,1080,2-19-2021,10-11-5,130,depth_duration_stimuli/000810_2014-06-08_17-20-01_260595134347_rgbf000105-resize_0/000810_2014-06-08_17-20-01_260595134347_rgbf000105-resize_0-target.png,250,1.4865,0.769230769230769,1963,249,feet,654257,693304,30.0
901,319259,DepthScenes,duration_manipulation,ak,http://54.165.233.113/DepthDuration/depth_duration_Mturk/DepthDuration_HTML.html#43,43,1920,1007,1920,1080,2-19-2021,10-11-5,134,depth_duration_stimuli/002660_2014-06-13_15-44-18_094959634447_rgbf001878-resize_2/002660_2014-06-13_15-44-18_094959634447_rgbf001878-resize_2-target.png,250,3.576,1.2307692307692306,1867,250,feet,654257,693304,30.0
905,319259,DepthScenes,duration_manipulation,ak,http://54.165.233.113/DepthDuration/depth_duration_Mturk/DepthDuration_HTML.html#43,43,1920,1007,1920,1080,2-19-2021,10-11-5,138,depth_duration_stimuli/002323_2014-06-28_20-01-54_260595134347_rgbf000051-resize_4/002323_2014-06-28_20-01-54_260595134347_rgbf000051-resize_4-target.png,250,3.7310000000000003,1.2307692307692306,1978,249,feet,654257,693304,30.0
910,319259,DepthScenes,duration_manipulation,ak,http://54.165.233.113/DepthDuration/depth_duration_Mturk/DepthDuration_HTML.html#43,43,1920,1007,1920,1080,2-19-2021,10-11-5,143,depth_duration_stimuli/001449_2014-06-19_17-01-27_260595134347_rgbf000116-resize_2/001449_2014-06-19_17-01-27_260595134347_rgbf000116-resize_2-target.png,250,3.452,0.6153846153846153,2186,249,feet,654257,693304,30.0
913,319259,DepthScenes,duration_manipulation,ak,http://54.165.233.113/DepthDuration/depth_duration_Mturk/DepthDuration_HTML.html#43,43,1920,1007,1920,1080,2-19-2021,10-11-5,146,depth_duration_stimuli/002340_2014-06-28_20-05-46_260595134347_rgbf000113-resize_0/002340_2014-06-28_20-05-46_260595134347_rgbf000113-resize_0-target.png,250,2.4735,0.46153846153846145,2090,250,feet,654257,693304,30.0
915,319259,DepthScenes,duration_manipulation,ak,http://54.165.233.113/DepthDuration/depth_duration_Mturk/DepthDuration_HTML.html#43,43,1920,1007,1920,1080,2-19-2021,10-11-5,148,depth_duration_stimuli/002344_2014-06-28_20-06-29_260595134347_rgbf000030-resize_1/002344_2014-06-28_20-06-29_260595134347_rgbf000030-resize_1-target.png,250,1.5795,0.9230769230769229,2107,250,feet,654257,693304,30.0
918,319259,DepthScenes,duration_manipulation,ak,http://54.165.233.113/DepthDuration/depth_duration_Mturk/DepthDuration_HTML.html#43,43,1920,1007,1920,1080,2-19-2021,10-11-5,151,depth_duration_stimuli/002748_2014-06-22_19-07-22_094959634447_rgbf000078-resize_1/002748_2014-06-22_19-07-22_094959634447_rgbf000078-resize_1-target.png,250,4.6705,0.769230769230769,2042,249,feet,654257,693304,30.0
919,319259,DepthScenes,duration_manipulation,ak,http://54.165.233.113/DepthDuration/depth_duration_Mturk/DepthDuration_HTML.html#43,43,1920,1007,1920,1080,2-19-2021,10-11-5,152,depth_duration_stimuli/000780_2014-06-08_22-28-29_260595134347_rgbf000126-resize_1/000780_2014-06-08_22-28-29_260595134347_rgbf000126-resize_1-target.png,250,3.3825,1.2307692307692306,2466,250,feet,654257,693304,30.0
924,319259,DepthScenes,duration_manipulation,ak,http://54.165.233.113/DepthDuration/depth_duration_Mturk/DepthDuration_HTML.html#43,43,1920,1007,1920,1080,2-19-2021,10-11-5,157,depth_duration_stimuli/000636_2014-06-08_16-39-02_260595134347_rgbf000108-resize_4/000636_2014-06-08_16-39-02_260595134347_rgbf000108-resize_4-target.png,250,2.682,0.769230769230769,1971,250,feet,654257,693304,30.0
926,319259,DepthScenes,duration_manipulation,ak,http://54.165.233.113/DepthDuration/depth_duration_Mturk/DepthDuration_HTML.html#43,43,1920,1007,1920,1080,2-19-2021,10-11-5,159,depth_duration_stimuli/001148_2014-06-17_15-26-42_260595134347_rgbf000129-resize_0/001148_2014-06-17_15-26-42_260595134347_rgbf000129-resize_0-target.png,250,4.368,1.2307692307692306,1859,250,feet,654257,693304,30.0
928,319259,DepthScenes,duration_manipulation,ak,http://54.165.233.113/DepthDuration/depth_duration_Mturk/DepthDuration_HTML.html#43,43,1920,1007,1920,1080,2-19-2021,10-11-5,161,depth_duration_stimuli/000677_2014-06-08_23-10-32_260595134347_rgbf000158-resize_6/000677_2014-06-08_23-10-32_260595134347_rgbf000158-resize_6-target.png,250,3.556,0.6153846153846153,1859,251,feet,654257,693304,30.0
930,319259,DepthScenes,duration_manipulation,ak,http://54.165.233.113/DepthDuration/depth_duration_Mturk/DepthDuration_HTML.html#43,43,1920,1007,1920,1080,2-19-2021,10-11-5,163,depth_duration_stimuli/002989_2014-06-15_12-25-03_094959634447_rgbf000150-resize_3/002989_2014-06-15_12-25-03_094959634447_rgbf000150-resize_3-target.png,250,4.1975,1.8461538461538458,3059,250,feet,654257,693304,30.0
945,319259,DepthScenes,duration_manipulation,ak,http://54.165.233.113/DepthDuration/depth_duration_Mturk/DepthDuration_HTML.html#43,43,1920,1007,1920,1080,2-19-2021,10-11-5,178,depth_duration_stimuli/003338_2014-05-20_11-01-23_094959634447_rgbf000051-resize_6/003338_2014-05-20_11-01-23_094959634447_rgbf000051-resize_6-target.png,250,1.693,0.30769230769230765,1819,251,feet,654257,693304,30.0
947,319259,DepthScenes,duration_manipulation,ak,http://54.165.233.113/DepthDuration/depth_duration_Mturk/DepthDuration_HTML.html#43,43,1920,1007,1920,1080,2-19-2021,10-11-5,180,depth_duration_stimuli/002949_2014-06-26_15-57-42_094959634447_rgbf000079-resize_1/002949_2014-06-26_15-57-42_094959634447_rgbf000079-resize_1-target.png,250,1.8915,0.30769230769230765,1763,250,feet,654257,693304,30.0
953,319259,DepthScenes,duration_manipulation,ak,http://54.165.233.113/DepthDuration/depth_duration_Mturk/DepthDuration_HTML.html#43,43,1920,1007,1920,1080,2-19-2021,10-11-5,186,depth_duration_stimuli/003423_2014-05-21_10-23-26_094959634447_rgbf002665-resize_2/003423_2014-05-21_10-23-26_094959634447_rgbf002665-resize_2-target.png,250,3.2575,0.769230769230769,1937,249,feet,654257,693304,30.0
958,319259,DepthScenes,duration_manipulation,ak,http://54.165.233.113/DepthDuration/depth_duration_Mturk/DepthDuration_HTML.html#43,43,1920,1007,1920,1080,2-19-2021,10-11-5,191,depth_duration_stimuli/003079_2014-06-15_15-18-20_094959634447_rgbf000152-resize_8/003079_2014-06-15_15-18-20_094959634447_rgbf000152-resize_8-target.png,250,2.8775,1.2307692307692306,1963,250,feet,654257,693304,30.0
972,832052,DepthScenes,duration_manipulation,ac,http://54.165.233.113/DepthDuration/depth_duration_Mturk/DepthDuration_HTML.html#12,12,2560,937,2560,1080,2-19-2021,10-12-46,13,depth_duration_stimuli/002414_2014-06-28_20-24-58_260595134347_rgbf000067-resize_4/002414_2014-06-28_20-24-58_260595134347_rgbf000067-resize_4-target.png,250,4.363,1.1977624218492924,6103,254,feet,1009566,1132583,60.0
976,832052,DepthScenes,duration_manipulation,ac,http://54.165.233.113/DepthDuration/depth_duration_Mturk/DepthDuration_HTML.html#12,12,2560,937,2560,1080,2-19-2021,10-12-46,17,depth_duration_stimuli/000502_2014-06-08_23-02-32_260595134347_rgbf000063-resize_4/000502_2014-06-08_23-02-32_260595134347_rgbf000063-resize_4-target.png,250,2.431,0.8384336952945046,4555,263,feet,1009566,1132583,60.0
977,832052,DepthScenes,duration_manipulation,ac,http://54.165.233.113/DepthDuration/depth_duration_Mturk/DepthDuration_HTML.html#12,12,2560,937,2560,1080,2-19-2021,10-12-46,18,depth_duration_stimuli/000810_2014-06-08_17-20-01_260595134347_rgbf000105-resize_0/000810_2014-06-08_17-20-01_260595134347_rgbf000105-resize_0-target.png,250,1.4865,0.7186574531095754,3991,261,feet,1009566,1132583,60.0
978,832052,DepthScenes,duration_manipulation,ac,http://54.165.233.113/DepthDuration/depth_duration_Mturk/DepthDuration_HTML.html#12,12,2560,937,2560,1080,2-19-2021,10-12-46,19,depth_duration_stimuli/002805_2014-06-22_19-54-03_094959634447_rgbf000079-resize_1/002805_2014-06-22_19-54-03_094959634447_rgbf000079-resize_1-target.png,250,3.1439999999999997,1.0779861796643633,3875,249,feet,1009566,1132583,60.0
984,832052,DepthScenes,duration_manipulation,ac,http://54.165.233.113/DepthDuration/depth_duration_Mturk/DepthDuration_HTML.html#12,12,2560,937,2560,1080,2-19-2021,10-12-46,25,depth_duration_stimuli/002344_2014-06-28_20-06-29_260595134347_rgbf000030-resize_1/002344_2014-06-28_20-06-29_260595134347_rgbf000030-resize_1-target.png,250,1.5795,0.3593287265547877,3419,250,feet,1009566,1132583,60.0
986,832052,DepthScenes,duration_manipulation,ac,http://54.165.233.113/DepthDuration/depth_duration_Mturk/DepthDuration_HTML.html#12,12,2560,937,2560,1080,2-19-2021,10-12-46,27,depth_duration_stimuli/000103_2014-05-14_22-01-17_260595134347_rgbf000152-resize_5/000103_2014-05-14_22-01-17_260595134347_rgbf000152-resize_5-target.png,250,1.993,1.7966436327739386,4787,250,feet,1009566,1132583,60.0
987,832052,DepthScenes,duration_manipulation,ac,http://54.165.233.113/DepthDuration/depth_duration_Mturk/DepthDuration_HTML.html#12,12,2560,937,2560,1080,2-19-2021,10-12-46,28,depth_duration_stimuli/003492_2014-05-21_15-50-55_094959634447_rgbf000828-resize_1/003492_2014-05-21_15-50-55_094959634447_rgbf000828-resize_1-target.png,250,4.06875,1.1977624218492924,4105,262,feet,1009566,1132583,60.0
990,832052,DepthScenes,duration_manipulation,ac,http://54.165.233.113/DepthDuration/depth_duration_Mturk/DepthDuration_HTML.html#12,12,2560,937,2560,1080,2-19-2021,10-12-46,31,depth_duration_stimuli/002153_2014-06-25_21-27-18_260595134347_rgbf000038-resize_5/002153_2014-06-25_21-27-18_260595134347_rgbf000038-resize_5-target.png,250,2.505,0.7785455742020401,4593,251,feet,1009566,1132583,60.0
991,832052,DepthScenes,duration_manipulation,ac,http://54.165.233.113/DepthDuration/depth_duration_Mturk/DepthDuration_HTML.html#12,12,2560,937,2560,1080,2-19-2021,10-12-46,32,depth_duration_stimuli/002678_2014-06-13_16-15-32_094959634447_rgbf000151-resize_6/002678_2014-06-13_16-15-32_094959634447_rgbf000151-resize_6-target.png,250,2.1830000000000003,1.0779861796643633,4548,261,feet,1009566,1132583,60.0
1001,832052,DepthScenes,duration_manipulation,ac,http://54.165.233.113/DepthDuration/depth_duration_Mturk/DepthDuration_HTML.html#12,12,2560,937,2560,1080,2-19-2021,10-12-46,42,depth_duration_stimuli/001815_2014-06-26_20-52-55_260595134347_rgbf000020-resize_0/001815_2014-06-26_20-52-55_260595134347_rgbf000020-resize_0-target.png,250,3.3865,1.4373149062191508,4114,256,feet,1009566,1132583,60.0
1004,832052,DepthScenes,duration_manipulation,ac,http://54.165.233.113/DepthDuration/depth_duration_Mturk/DepthDuration_HTML.html#12,12,2560,937,2560,1080,2-19-2021,10-12-46,45,depth_duration_stimuli/002988_2014-06-15_12-24-20_094959634447_rgbf000150-resize_1/002988_2014-06-15_12-24-20_094959634447_rgbf000150-resize_1-target.png,250,4.7669999999999995,1.0779861796643633,5198,250,feet,1009566,1132583,60.0
1008,832052,DepthScenes,duration_manipulation,ac,http://54.165.233.113/DepthDuration/depth_duration_Mturk/DepthDuration_HTML.html#12,12,2560,937,2560,1080,2-19-2021,10-12-46,49,depth_duration_stimuli/000483_2014-06-09_20-41-45_260595134347_rgbf000116-resize_4/000483_2014-06-09_20-41-45_260595134347_rgbf000116-resize_4-target.png,250,1.337,0.7186574531095754,3103,263,feet,1009566,1132583,60.0
1010,832052,DepthScenes,duration_manipulation,ac,http://54.165.233.113/DepthDuration/depth_duration_Mturk/DepthDuration_HTML.html#12,12,2560,937,2560,1080,2-19-2021,10-12-46,51,depth_duration_stimuli/001110_2014-06-15_17-25-28_260595134347_rgbf000150-resize_1/001110_2014-06-15_17-25-28_260595134347_rgbf000150-resize_1-target.png,250,1.7115,0.7785455742020401,4385,252,feet,1009566,1132583,60.0
1018,832052,DepthScenes,duration_manipulation,ac,http://54.165.233.113/DepthDuration/depth_duration_Mturk/DepthDuration_HTML.html#12,12,2560,937,2560,1080,2-19-2021,10-12-46,59,depth_duration_stimuli/000691_2014-06-08_13-08-50_260595134347_rgbf000132-resize_3/000691_2014-06-08_13-08-50_260595134347_rgbf000132-resize_3-target.png,250,4.1530000000000005,1.3175386640342217,9233,250,feet,1009566,1132583,60.0
1035,832052,DepthScenes,duration_manipulation,ac,http://54.165.233.113/DepthDuration/depth_duration_Mturk/DepthDuration_HTML.html#12,12,2560,937,2560,1080,2-19-2021,10-12-46,76,depth_duration_stimuli/001264_2014-06-16_16-10-23_260595134347_rgbf000109-resize_1/001264_2014-06-16_16-10-23_260595134347_rgbf000109-resize_1-target.png,250,2.9665,0.7186574531095754,2969,259,feet,1009566,1132583,60.0
1037,832052,DepthScenes,duration_manipulation,ac,http://54.165.233.113/DepthDuration/depth_duration_Mturk/DepthDuration_HTML.html#12,12,2560,937,2560,1080,2-19-2021,10-12-46,78,depth_duration_stimuli/000414_2014-06-04_19-49-13_260595134347_rgbf000044-resize_0/000414_2014-06-04_19-49-13_260595134347_rgbf000044-resize_0-target.png,250,4.329,1.1977624218492924,4986,256,feet,1009566,1132583,60.0
1045,832052,DepthScenes,duration_manipulation,ac,http://54.165.233.113/DepthDuration/depth_duration_Mturk/DepthDuration_HTML.html#12,12,2560,937,2560,1080,2-19-2021,10-12-46,86,depth_duration_stimuli/002136_2014-06-25_21-18-03_260595134347_rgbf000109-resize_3/002136_2014-06-25_21-18-03_260595134347_rgbf000109-resize_3-target.png,250,1.9569999999999999,0.4192168476472523,3796,259,feet,1009566,1132583,60.0
1047,832052,DepthScenes,duration_manipulation,ac,http://54.165.233.113/DepthDuration/depth_duration_Mturk/DepthDuration_HTML.html#12,12,2560,937,2560,1080,2-19-2021,10-12-46,88,depth_duration_stimuli/000191_2014-05-12_17-07-38_260595134347_rgbf000199-resize_0/000191_2014-05-12_17-07-38_260595134347_rgbf000199-resize_0-target.png,250,3.7995,1.1977624218492924,4215,248,feet,1009566,1132583,60.0
1048,832052,DepthScenes,duration_manipulation,ac,http://54.165.233.113/DepthDuration/depth_duration_Mturk/DepthDuration_HTML.html#12,12,2560,937,2560,1080,2-19-2021,10-12-46,89,depth_duration_stimuli/001244_2014-06-17_16-47-45_260595134347_rgbf000030-resize_4/001244_2014-06-17_16-47-45_260595134347_rgbf000030-resize_4-target.png,250,2.0425,0.7186574531095754,3342,253,feet,1009566,1132583,60.0
1050,832052,DepthScenes,duration_manipulation,ac,http://54.165.233.113/DepthDuration/depth_duration_Mturk/DepthDuration_HTML.html#12,12,2560,937,2560,1080,2-19-2021,10-12-46,91,depth_duration_stimuli/002600_2014-06-24_14-27-04_094959634447_rgbf000074-resize_2/002600_2014-06-24_14-27-04_094959634447_rgbf000074-resize_2-target.png,250,2.7575,0.8384336952945046,3281,249,feet,1009566,1132583,60.0
1054,832052,DepthScenes,duration_manipulation,ac,http://54.165.233.113/DepthDuration/depth_duration_Mturk/DepthDuration_HTML.html#12,12,2560,937,2560,1080,2-19-2021,10-12-46,95,depth_duration_stimuli/002700_2014-06-22_11-27-02_094959634447_rgbf000124-resize_3/002700_2014-06-22_11-27-02_094959634447_rgbf000124-resize_3-target.png,250,3.301,0.8384336952945046,3697,251,feet,1009566,1132583,60.0
1056,832052,DepthScenes,duration_manipulation,ac,http://54.165.233.113/DepthDuration/depth_duration_Mturk/DepthDuration_HTML.html#12,12,2560,937,2560,1080,2-19-2021,10-12-46,97,depth_duration_stimuli/000906_2014-06-08_13-35-43_260595134347_rgbf000155-resize_1/000906_2014-06-08_13-35-43_260595134347_rgbf000155-resize_1-target.png,250,2.8489999999999998,1.4373149062191508,4029,260,feet,1009566,1132583,60.0
1061,832052,DepthScenes,duration_manipulation,ac,http://54.165.233.113/DepthDuration/depth_duration_Mturk/DepthDuration_HTML.html#12,12,2560,937,2560,1080,2-19-2021,10-12-46,102,depth_duration_stimuli/002639_2014-06-24_14-51-37_094959634447_rgbf000074-resize_4/002639_2014-06-24_14-51-37_094959634447_rgbf000074-resize_4-target.png,250,4.0375,0.9582099374794338,3364,249,feet,1009566,1132583,60.0
1065,832052,DepthScenes,duration_manipulation,ac,http://54.165.233.113/DepthDuration/depth_duration_Mturk/DepthDuration_HTML.html#12,12,2560,937,2560,1080,2-19-2021,10-12-46,106,depth_duration_stimuli/000409_2014-06-04_19-23-33_260595134347_rgbf000067-resize_0/000409_2014-06-04_19-23-33_260595134347_rgbf000067-resize_0-target.png,250,3.7335,1.1977624218492924,3604,264,feet,1009566,1132583,60.0
1067,832052,DepthScenes,duration_manipulation,ac,http://54.165.233.113/DepthDuration/depth_duration_Mturk/DepthDuration_HTML.html#12,12,2560,937,2560,1080,2-19-2021,10-12-46,108,depth_duration_stimuli/001164_2014-06-17_15-35-46_260595134347_rgbf000085-resize_3/001164_2014-06-17_15-35-46_260595134347_rgbf000085-resize_3-target.png,250,2.354,0.8384336952945046,3664,261,feet,1009566,1132583,60.0
1068,832052,DepthScenes,duration_manipulation,ac,http://54.165.233.113/DepthDuration/depth_duration_Mturk/DepthDuration_HTML.html#12,12,2560,937,2560,1080,2-19-2021,10-12-46,109,depth_duration_stimuli/002763_2014-06-22_19-13-10_094959634447_rgbf000075-resize_4/002763_2014-06-22_19-13-10_094959634447_rgbf000075-resize_4-target.png,250,1.68375,0.6587693320171109,4972,250,feet,1009566,1132583,60.0
1070,832052,DepthScenes,duration_manipulation,ac,http://54.165.233.113/DepthDuration/depth_duration_Mturk/DepthDuration_HTML.html#12,12,2560,937,2560,1080,2-19-2021,10-12-46,111,depth_duration_stimuli/000457_2014-06-08_16-52-43_260595134347_rgbf000199-resize_1/000457_2014-06-08_16-52-43_260595134347_rgbf000199-resize_1-target.png,250,3.6489999999999996,1.0779861796643633,4213,250,feet,1009566,1132583,60.0
1074,832052,DepthScenes,duration_manipulation,ac,http://54.165.233.113/DepthDuration/depth_duration_Mturk/DepthDuration_HTML.html#12,12,2560,937,2560,1080,2-19-2021,10-12-46,115,depth_duration_stimuli/002467_2014-06-28_20-38-07_260595134347_rgbf000026-resize_2/002467_2014-06-28_20-38-07_260595134347_rgbf000026-resize_2-target.png,250,4.742,1.1977624218492924,4114,256,feet,1009566,1132583,60.0
1095,832052,DepthScenes,duration_manipulation,ac,http://54.165.233.113/DepthDuration/depth_duration_Mturk/DepthDuration_HTML.html#12,12,2560,937,2560,1080,2-19-2021,10-12-46,136,depth_duration_stimuli/000636_2014-06-08_16-39-02_260595134347_rgbf000108-resize_4/000636_2014-06-08_16-39-02_260595134347_rgbf000108-resize_4-target.png,250,2.682,0.6587693320171109,4068,260,feet,1009566,1132583,60.0
1105,832052,DepthScenes,duration_manipulation,ac,http://54.165.233.113/DepthDuration/depth_duration_Mturk/DepthDuration_HTML.html#12,12,2560,937,2560,1080,2-19-2021,10-12-46,146,depth_duration_stimuli/001029_2014-06-08_13-17-57_260595134347_rgbf000065-resize_1/001029_2014-06-08_13-17-57_260595134347_rgbf000065-resize_1-target.png,250,3.0835,0.9582099374794338,3441,262,feet,1009566,1132583,60.0
1113,832052,DepthScenes,duration_manipulation,ac,http://54.165.233.113/DepthDuration/depth_duration_Mturk/DepthDuration_HTML.html#12,12,2560,937,2560,1080,2-19-2021,10-12-46,154,depth_duration_stimuli/001516_2014-06-20_16-25-09_260595134347_rgbf000076-resize_2/001516_2014-06-20_16-25-09_260595134347_rgbf000076-resize_2-target.png,250,1.7445,0.7785455742020401,4500,240,feet,1009566,1132583,60.0
1114,832052,DepthScenes,duration_manipulation,ac,http://54.165.233.113/DepthDuration/depth_duration_Mturk/DepthDuration_HTML.html#12,12,2560,937,2560,1080,2-19-2021,10-12-46,155,depth_duration_stimuli/001571_2014-06-20_17-21-32_260595134347_rgbf000089-resize_1/001571_2014-06-20_17-21-32_260595134347_rgbf000089-resize_1-target.png,250,1.86,0.6587693320171109,3921,258,feet,1009566,1132583,60.0
1116,832052,DepthScenes,duration_manipulation,ac,http://54.165.233.113/DepthDuration/depth_duration_Mturk/DepthDuration_HTML.html#12,12,2560,937,2560,1080,2-19-2021,10-12-46,157,depth_duration_stimuli/001214_2014-06-17_16-13-55_260595134347_rgbf000111-resize_0/001214_2014-06-17_16-13-55_260595134347_rgbf000111-resize_0-target.png,250,2.6505,0.7785455742020401,4764,251,feet,1009566,1132583,60.0
1117,832052,DepthScenes,duration_manipulation,ac,http://54.165.233.113/DepthDuration/depth_duration_Mturk/DepthDuration_HTML.html#12,12,2560,937,2560,1080,2-19-2021,10-12-46,158,depth_duration_stimuli/000447_2014-06-08_16-15-46_260595134347_rgbf000130-resize_1/000447_2014-06-08_16-15-46_260595134347_rgbf000130-resize_1-target.png,250,4.479,0.9582099374794338,3564,259,feet,1009566,1132583,60.0
1126,832052,DepthScenes,duration_manipulation,ac,http://54.165.233.113/DepthDuration/depth_duration_Mturk/DepthDuration_HTML.html#12,12,2560,937,2560,1080,2-19-2021,10-12-46,167,depth_duration_stimuli/001100_2014-06-15_17-46-26_260595134347_rgbf000225-resize_2/001100_2014-06-15_17-46-26_260595134347_rgbf000225-resize_2-target.png,250,2.24,0.4791049687397169,3417,253,feet,1009566,1132583,60.0
1132,832052,DepthScenes,duration_manipulation,ac,http://54.165.233.113/DepthDuration/depth_duration_Mturk/DepthDuration_HTML.html#12,12,2560,937,2560,1080,2-19-2021,10-12-46,173,depth_duration_stimuli/002630_2014-06-24_14-47-50_094959634447_rgbf000055-resize_1/002630_2014-06-24_14-47-50_094959634447_rgbf000055-resize_1-target.png,250,3.0095,1.3175386640342217,9787,253,feet,1009566,1132583,60.0
1138,832052,DepthScenes,duration_manipulation,ac,http://54.165.233.113/DepthDuration/depth_duration_Mturk/DepthDuration_HTML.html#12,12,2560,937,2560,1080,2-19-2021,10-12-46,179,depth_duration_stimuli/002103_2014-06-25_20-00-40_260595134347_rgbf000049-resize_0/002103_2014-06-25_20-00-40_260595134347_rgbf000049-resize_0-target.png,250,4.105,0.7785455742020401,4215,262,feet,1009566,1132583,60.0
1140,832052,DepthScenes,duration_manipulation,ac,http://54.165.233.113/DepthDuration/depth_duration_Mturk/DepthDuration_HTML.html#12,12,2560,937,2560,1080,2-19-2021,10-12-46,181,depth_duration_stimuli/003129_2014-05-12_10-48-10_094959634447_rgbf000100-resize_0/003129_2014-05-12_10-48-10_094959634447_rgbf000100-resize_0-target.png,250,4.9305,1.0779861796643633,3978,250,feet,1009566,1132583,60.0
1149,832052,DepthScenes,duration_manipulation,ac,http://54.165.233.113/DepthDuration/depth_duration_Mturk/DepthDuration_HTML.html#12,12,2560,937,2560,1080,2-19-2021,10-12-46,190,depth_duration_stimuli/000736_2014-06-08_18-24-15_260595134347_rgbf000206-resize_3/000736_2014-06-08_18-24-15_260595134347_rgbf000206-resize_3-target.png,250,3.515,1.0180980585718986,5217,251,feet,1009566,1132583,60.0
1345,710719,DepthScenes,duration_manipulation,ar,http://54.165.233.113/DepthDuration/depth_duration_Mturk/DepthDuration_HTML.html#72,72,1920,937,1920,1080,2-19-2021,10-26-9,2,depth_duration_stimuli/002509_2014-06-24_13-19-22_094959634447_rgbf000077-resize_0/002509_2014-06-24_13-19-22_094959634447_rgbf000077-resize_0-target.png,250,1.3065,0.40546369518332137,2651,250,feet,732749,995931,39.0
1355,710719,DepthScenes,duration_manipulation,ar,http://54.165.233.113/DepthDuration/depth_duration_Mturk/DepthDuration_HTML.html#72,72,1920,937,1920,1080,2-19-2021,10-26-9,12,depth_duration_stimuli/000742_2014-06-08_18-48-09_260595134347_rgbf000164-resize_4/000742_2014-06-08_18-48-09_260595134347_rgbf000164-resize_4-target.png,250,4.632,2.432782171099928,4589,251,feet,732749,995931,39.0
1356,710719,DepthScenes,duration_manipulation,ar,http://54.165.233.113/DepthDuration/depth_duration_Mturk/DepthDuration_HTML.html#72,72,1920,937,1920,1080,2-19-2021,10-26-9,13,depth_duration_stimuli/002875_2014-06-01_15-19-00_094959634447_rgbf000151-resize_1/002875_2014-06-01_15-19-00_094959634447_rgbf000151-resize_1-target.png,250,1.9675,0.9460819554277498,2586,235,feet,732749,995931,39.0
1361,710719,DepthScenes,duration_manipulation,ar,http://54.165.233.113/DepthDuration/depth_duration_Mturk/DepthDuration_HTML.html#72,72,1920,937,1920,1080,2-19-2021,10-26-9,18,depth_duration_stimuli/002340_2014-06-28_20-05-46_260595134347_rgbf000113-resize_0/002340_2014-06-28_20-05-46_260595134347_rgbf000113-resize_0-target.png,250,2.4735,0.9460819554277498,2788,252,feet,732749,995931,39.0
1365,710719,DepthScenes,duration_manipulation,ar,http://54.165.233.113/DepthDuration/depth_duration_Mturk/DepthDuration_HTML.html#72,72,1920,937,1920,1080,2-19-2021,10-26-9,22,depth_duration_stimuli/000506_2014-06-08_23-21-00_260595134347_rgbf000070-resize_7/000506_2014-06-08_23-21-00_260595134347_rgbf000070-resize_7-target.png,250,4.0585,1.8921639108554995,2379,250,feet,732749,995931,39.0
1370,710719,DepthScenes,duration_manipulation,ar,http://54.165.233.113/DepthDuration/depth_duration_Mturk/DepthDuration_HTML.html#72,72,1920,937,1920,1080,2-19-2021,10-26-9,27,depth_duration_stimuli/001806_2014-06-26_20-50-20_260595134347_rgbf000091-resize_1/001806_2014-06-26_20-50-20_260595134347_rgbf000091-resize_1-target.png,250,2.7305,0.5406182602444285,2197,255,feet,732749,995931,39.0
1374,710719,DepthScenes,duration_manipulation,ar,http://54.165.233.113/DepthDuration/depth_duration_Mturk/DepthDuration_HTML.html#72,72,1920,937,1920,1080,2-19-2021,10-26-9,31,depth_duration_stimuli/001055_2014-06-08_18-45-35_260595134347_rgbf000111-resize_4/001055_2014-06-08_18-45-35_260595134347_rgbf000111-resize_4-target.png,250,2.4290000000000003,1.081236520488857,2345,250,feet,732749,995931,39.0
1377,710719,DepthScenes,duration_manipulation,ar,http://54.165.233.113/DepthDuration/depth_duration_Mturk/DepthDuration_HTML.html#72,72,1920,937,1920,1080,2-19-2021,10-26-9,34,depth_duration_stimuli/003288_2014-05-14_21-50-30_094959634447_rgbf000028-resize_3/003288_2014-05-14_21-50-30_094959634447_rgbf000028-resize_3-target.png,250,3.877,0.8109273903666427,2166,250,feet,732749,995931,39.0
1379,710719,DepthScenes,duration_manipulation,ar,http://54.165.233.113/DepthDuration/depth_duration_Mturk/DepthDuration_HTML.html#72,72,1920,937,1920,1080,2-19-2021,10-26-9,36,depth_duration_stimuli/002790_2014-06-22_19-36-35_094959634447_rgbf000074-resize_4/002790_2014-06-22_19-36-35_094959634447_rgbf000074-resize_4-target.png,250,3.512,1.081236520488857,2124,251,feet,732749,995931,39.0
1380,710719,DepthScenes,duration_manipulation,ar,http://54.165.233.113/DepthDuration/depth_duration_Mturk/DepthDuration_HTML.html#72,72,1920,937,1920,1080,2-19-2021,10-26-9,37,depth_duration_stimuli/001450_2014-06-19_17-02-03_260595134347_rgbf000203-resize_4/001450_2014-06-19_17-02-03_260595134347_rgbf000203-resize_4-target.png,250,4.0106666666667,1.8921639108554995,2521,249,feet,732749,995931,39.0
1382,710719,DepthScenes,duration_manipulation,ar,http://54.165.233.113/DepthDuration/depth_duration_Mturk/DepthDuration_HTML.html#72,72,1920,937,1920,1080,2-19-2021,10-26-9,39,depth_duration_stimuli/000810_2014-06-08_17-20-01_260595134347_rgbf000105-resize_0/000810_2014-06-08_17-20-01_260595134347_rgbf000105-resize_0-target.png,250,1.4865,0.5406182602444285,2356,250,feet,732749,995931,39.0
1384,710719,DepthScenes,duration_manipulation,ar,http://54.165.233.113/DepthDuration/depth_duration_Mturk/DepthDuration_HTML.html#72,72,1920,937,1920,1080,2-19-2021,10-26-9,41,depth_duration_stimuli/001132_2014-06-17_14-48-54_260595134347_rgbf000100-resize_2/001132_2014-06-17_14-48-54_260595134347_rgbf000100-resize_2-target.png,250,3.753,1.216391085549964,2966,250,feet,732749,995931,39.0
1392,710719,DepthScenes,duration_manipulation,ar,http://54.165.233.113/DepthDuration/depth_duration_Mturk/DepthDuration_HTML.html#72,72,1920,937,1920,1080,2-19-2021,10-26-9,49,depth_duration_stimuli/000677_2014-06-08_23-10-32_260595134347_rgbf000158-resize_6/000677_2014-06-08_23-10-32_260595134347_rgbf000158-resize_6-target.png,250,3.556,0.9460819554277498,2637,251,feet,732749,995931,39.0
1400,710719,DepthScenes,duration_manipulation,ar,http://54.165.233.113/DepthDuration/depth_duration_Mturk/DepthDuration_HTML.html#72,72,1920,937,1920,1080,2-19-2021,10-26-9,57,depth_duration_stimuli/002118_2014-06-25_20-32-08_260595134347_rgbf000078-resize_1/002118_2014-06-25_20-32-08_260595134347_rgbf000078-resize_1-target.png,250,2.6460000000000004,0.9460819554277498,2324,250,feet,732749,995931,39.0
1401,710719,DepthScenes,duration_manipulation,ar,http://54.165.233.113/DepthDuration/depth_duration_Mturk/DepthDuration_HTML.html#72,72,1920,937,1920,1080,2-19-2021,10-26-9,58,depth_duration_stimuli/001181_2014-06-17_15-50-57_260595134347_rgbf000106-resize_4/001181_2014-06-17_15-50-57_260595134347_rgbf000106-resize_4-target.png,250,4.149,1.8921639108554995,2833,249,feet,732749,995931,39.0
1406,710719,DepthScenes,duration_manipulation,ar,http://54.165.233.113/DepthDuration/depth_duration_Mturk/DepthDuration_HTML.html#72,72,1920,937,1920,1080,2-19-2021,10-26-9,63,depth_duration_stimuli/001571_2014-06-20_17-21-32_260595134347_rgbf000089-resize_1/001571_2014-06-20_17-21-32_260595134347_rgbf000089-resize_1-target.png,250,1.86,0.40546369518332137,1952,249,feet,732749,995931,39.0
1413,710719,DepthScenes,duration_manipulation,ar,http://54.165.233.113/DepthDuration/depth_duration_Mturk/DepthDuration_HTML.html#72,72,1920,937,1920,1080,2-19-2021,10-26-9,70,depth_duration_stimuli/001235_2014-06-17_16-37-36_260595134347_rgbf000084-resize_4/001235_2014-06-17_16-37-36_260595134347_rgbf000084-resize_4-target.png,250,3.6605,0.6757728253055355,2105,247,feet,732749,995931,39.0
1424,710719,DepthScenes,duration_manipulation,ar,http://54.165.233.113/DepthDuration/depth_duration_Mturk/DepthDuration_HTML.html#72,72,1920,937,1920,1080,2-19-2021,10-26-9,81,depth_duration_stimuli/002784_2014-06-22_19-26-30_094959634447_rgbf000083-resize_3/002784_2014-06-22_19-26-30_094959634447_rgbf000083-resize_3-target.png,250,1.8046666666667,0.40546369518332137,1960,273,feet,732749,995931,39.0
1430,710719,DepthScenes,duration_manipulation,ar,http://54.165.233.113/DepthDuration/depth_duration_Mturk/DepthDuration_HTML.html#72,72,1920,937,1920,1080,2-19-2021,10-26-9,87,depth_duration_stimuli/002989_2014-06-15_12-25-03_094959634447_rgbf000150-resize_3/002989_2014-06-15_12-25-03_094959634447_rgbf000150-resize_3-target.png,250,4.1975,1.6218547807332855,2752,246,feet,732749,995931,39.0
1431,710719,DepthScenes,duration_manipulation,ar,http://54.165.233.113/DepthDuration/depth_duration_Mturk/DepthDuration_HTML.html#72,72,1920,937,1920,1080,2-19-2021,10-26-9,88,depth_duration_stimuli/001164_2014-06-17_15-35-46_260595134347_rgbf000085-resize_3/001164_2014-06-17_15-35-46_260595134347_rgbf000085-resize_3-target.png,250,2.354,0.5406182602444285,2372,251,feet,732749,995931,39.0
1434,710719,DepthScenes,duration_manipulation,ar,http://54.165.233.113/DepthDuration/depth_duration_Mturk/DepthDuration_HTML.html#72,72,1920,937,1920,1080,2-19-2021,10-26-9,91,depth_duration_stimuli/003081_2014-06-15_15-19-16_094959634447_rgbf000150-resize_1/003081_2014-06-15_15-19-16_094959634447_rgbf000150-resize_1-target.png,250,3.9125,1.216391085549964,2292,249,feet,732749,995931,39.0
1436,710719,DepthScenes,duration_manipulation,ar,http://54.165.233.113/DepthDuration/depth_duration_Mturk/DepthDuration_HTML.html#72,72,1920,937,1920,1080,2-19-2021,10-26-9,93,depth_duration_stimuli/003070_2014-06-15_14-58-27_094959634447_rgbf000150-resize_3/003070_2014-06-15_14-58-27_094959634447_rgbf000150-resize_3-target.png,250,2.9415,1.081236520488857,2350,250,feet,732749,995931,39.0
1437,710719,DepthScenes,duration_manipulation,ar,http://54.165.233.113/DepthDuration/depth_duration_Mturk/DepthDuration_HTML.html#72,72,1920,937,1920,1080,2-19-2021,10-26-9,94,depth_duration_stimuli/002039_2014-06-24_20-22-38_260595134347_rgbf000084-resize_1/002039_2014-06-24_20-22-38_260595134347_rgbf000084-resize_1-target.png,250,4.408,1.4867002156721782,2842,262,feet,732749,995931,39.0
1438,710719,DepthScenes,duration_manipulation,ar,http://54.165.233.113/DepthDuration/depth_duration_Mturk/DepthDuration_HTML.html#72,72,1920,937,1920,1080,2-19-2021,10-26-9,95,depth_duration_stimuli/000720_2014-06-08_18-37-27_260595134347_rgbf000203-resize_4/000720_2014-06-08_18-37-27_260595134347_rgbf000203-resize_4-target.png,250,1.558,0.6757728253055355,1874,250,feet,732749,995931,39.0
1440,710719,DepthScenes,duration_manipulation,ar,http://54.165.233.113/DepthDuration/depth_duration_Mturk/DepthDuration_HTML.html#72,72,1920,937,1920,1080,2-19-2021,10-26-9,97,depth_duration_stimuli/000758_2014-06-08_22-05-08_260595134347_rgbf000085-resize_0/000758_2014-06-08_22-05-08_260595134347_rgbf000085-resize_0-target.png,250,3.3810000000000002,1.8921639108554995,2090,250,feet,732749,995931,39.0
1441,710719,DepthScenes,duration_manipulation,ar,http://54.165.233.113/DepthDuration/depth_duration_Mturk/DepthDuration_HTML.html#72,72,1920,937,1920,1080,2-19-2021,10-26-9,98,depth_duration_stimuli/001650_2014-06-20_12-09-00_260595134347_rgbf000087-resize_3/001650_2014-06-20_12-09-00_260595134347_rgbf000087-resize_3-target.png,250,1.9505,0.13515456506110712,1693,250,feet,732749,995931,39.0
1444,710719,DepthScenes,duration_manipulation,ar,http://54.165.233.113/DepthDuration/depth_duration_Mturk/DepthDuration_HTML.html#72,72,1920,937,1920,1080,2-19-2021,10-26-9,101,depth_duration_stimuli/003423_2014-05-21_10-23-26_094959634447_rgbf002665-resize_2/003423_2014-05-21_10-23-26_094959634447_rgbf002665-resize_2-target.png,250,3.2575,1.6218547807332855,2685,251,feet,732749,995931,39.0
1449,710719,DepthScenes,duration_manipulation,ar,http://54.165.233.113/DepthDuration/depth_duration_Mturk/DepthDuration_HTML.html#72,72,1920,937,1920,1080,2-19-2021,10-26-9,106,depth_duration_stimuli/002344_2014-06-28_20-06-29_260595134347_rgbf000030-resize_1/002344_2014-06-28_20-06-29_260595134347_rgbf000030-resize_1-target.png,250,1.5795,0.27030913012221425,1701,250,feet,732749,995931,39.0
1451,710719,DepthScenes,duration_manipulation,ar,http://54.165.233.113/DepthDuration/depth_duration_Mturk/DepthDuration_HTML.html#72,72,1920,937,1920,1080,2-19-2021,10-26-9,108,depth_duration_stimuli/003490_2014-05-21_15-50-11_094959634447_rgbf000101-resize_3/003490_2014-05-21_15-50-11_094959634447_rgbf000101-resize_3-target.png,250,3.6445,1.081236520488857,2162,250,feet,732749,995931,39.0
1452,710719,DepthScenes,duration_manipulation,ar,http://54.165.233.113/DepthDuration/depth_duration_Mturk/DepthDuration_HTML.html#72,72,1920,937,1920,1080,2-19-2021,10-26-9,109,depth_duration_stimuli/003492_2014-05-21_15-50-55_094959634447_rgbf000828-resize_1/003492_2014-05-21_15-50-55_094959634447_rgbf000828-resize_1-target.png,250,4.06875,1.351545650611071,4459,249,feet,732749,995931,39.0
1457,710719,DepthScenes,duration_manipulation,ar,http://54.165.233.113/DepthDuration/depth_duration_Mturk/DepthDuration_HTML.html#72,72,1920,937,1920,1080,2-19-2021,10-26-9,114,depth_duration_stimuli/003083_2014-06-15_15-21-03_094959634447_rgbf000063-resize_1/003083_2014-06-15_15-21-03_094959634447_rgbf000063-resize_1-target.png,250,4.1405,1.351545650611071,2611,250,feet,732749,995931,39.0
