,subjID,experimentName,versionName,sequenceName,url,selected_row,windowWidth,windowHeight,screenWidth,screenHeight,startDate,startTime,trial,stimulus,duration,actual_depth,depth_estimate,trial_RT,log_sceneDuration,unitSelection,experimentTime,totalTime,age
193,243745,DepthScenes,duration_manipulation,aw,http://54.165.233.113/DepthDuration/depth_duration_Mturk/DepthDuration_HTML.html#92,92,1024,768,1024,768,2-19-2021,10-10-37,2,depth_duration_stimuli/002639_2014-06-24_14-51-37_094959634447_rgbf000074-resize_4/002639_2014-06-24_14-51-37_094959634447_rgbf000074-resize_4-target.png,750,4.0375,1.176731301939058,4055,750,feet,631587,777883,58.0
202,243745,DepthScenes,duration_manipulation,aw,http://54.165.233.113/DepthDuration/depth_duration_Mturk/DepthDuration_HTML.html#92,92,1024,768,1024,768,2-19-2021,10-10-37,11,depth_duration_stimuli/000556_2014-06-09_22-42-56_260595134347_rgbf000214-resize_1/000556_2014-06-09_22-42-56_260595134347_rgbf000214-resize_1-target.png,750,4.8415,1.5689750692520772,2425,751,feet,631587,777883,58.0
204,243745,DepthScenes,duration_manipulation,aw,http://54.165.233.113/DepthDuration/depth_duration_Mturk/DepthDuration_HTML.html#92,92,1024,768,1024,768,2-19-2021,10-10-37,13,depth_duration_stimuli/000470_2014-06-09_19-42-40_260595134347_rgbf000094-resize_1/000470_2014-06-09_19-42-40_260595134347_rgbf000094-resize_1-target.png,750,1.831,0.4903047091412741,2410,750,feet,631587,777883,58.0
205,243745,DepthScenes,duration_manipulation,aw,http://54.165.233.113/DepthDuration/depth_duration_Mturk/DepthDuration_HTML.html#92,92,1024,768,1024,768,2-19-2021,10-10-37,14,depth_duration_stimuli/000009_2014-05-26_14-32-05_260595134347_rgbf000034-resize_3/000009_2014-05-26_14-32-05_260595134347_rgbf000034-resize_3-target.png,750,3.8715,1.176731301939058,3274,750,feet,631587,777883,58.0
207,243745,DepthScenes,duration_manipulation,aw,http://54.165.233.113/DepthDuration/depth_duration_Mturk/DepthDuration_HTML.html#92,92,1024,768,1024,768,2-19-2021,10-10-37,16,depth_duration_stimuli/003587_2014-05-23_16-48-02_094959634447_rgbf002384-resize_2/003587_2014-05-23_16-48-02_094959634447_rgbf002384-resize_2-target.png,750,1.357,0.19612188365650965,2570,750,feet,631587,777883,58.0
208,243745,DepthScenes,duration_manipulation,aw,http://54.165.233.113/DepthDuration/depth_duration_Mturk/DepthDuration_HTML.html#92,92,1024,768,1024,768,2-19-2021,10-10-37,17,depth_duration_stimuli/003069_2014-06-15_14-57-50_094959634447_rgbf000150-resize_4/003069_2014-06-15_14-57-50_094959634447_rgbf000150-resize_4-target.png,750,4.208,1.4709141274238224,2843,751,feet,631587,777883,58.0
213,243745,DepthScenes,duration_manipulation,aw,http://54.165.233.113/DepthDuration/depth_duration_Mturk/DepthDuration_HTML.html#92,92,1024,768,1024,768,2-19-2021,10-10-37,22,depth_duration_stimuli/003423_2014-05-21_10-23-26_094959634447_rgbf002665-resize_2/003423_2014-05-21_10-23-26_094959634447_rgbf002665-resize_2-target.png,750,3.2575,1.3728531855955675,2985,749,feet,631587,777883,58.0
216,243745,DepthScenes,duration_manipulation,aw,http://54.165.233.113/DepthDuration/depth_duration_Mturk/DepthDuration_HTML.html#92,92,1024,768,1024,768,2-19-2021,10-10-37,25,depth_duration_stimuli/002118_2014-06-25_20-32-08_260595134347_rgbf000078-resize_1/002118_2014-06-25_20-32-08_260595134347_rgbf000078-resize_1-target.png,750,2.6460000000000004,0.9806094182825482,2733,750,feet,631587,777883,58.0
219,243745,DepthScenes,duration_manipulation,aw,http://54.165.233.113/DepthDuration/depth_duration_Mturk/DepthDuration_HTML.html#92,92,1024,768,1024,768,2-19-2021,10-10-37,28,depth_duration_stimuli/002784_2014-06-22_19-26-30_094959634447_rgbf000083-resize_3/002784_2014-06-22_19-26-30_094959634447_rgbf000083-resize_3-target.png,750,1.8046666666667,0.588365650969529,2540,750,feet,631587,777883,58.0
221,243745,DepthScenes,duration_manipulation,aw,http://54.165.233.113/DepthDuration/depth_duration_Mturk/DepthDuration_HTML.html#92,92,1024,768,1024,768,2-19-2021,10-10-37,30,depth_duration_stimuli/002660_2014-06-13_15-44-18_094959634447_rgbf001878-resize_2/002660_2014-06-13_15-44-18_094959634447_rgbf001878-resize_2-target.png,750,3.576,1.176731301939058,2473,750,feet,631587,777883,58.0
224,243745,DepthScenes,duration_manipulation,aw,http://54.165.233.113/DepthDuration/depth_duration_Mturk/DepthDuration_HTML.html#92,92,1024,768,1024,768,2-19-2021,10-10-37,33,depth_duration_stimuli/001011_2014-06-08_23-18-54_260595134347_rgbf000044-resize_4/001011_2014-06-08_23-18-54_260595134347_rgbf000044-resize_4-target.png,750,2.4730000000000003,1.3728531855955675,2775,750,feet,631587,777883,58.0
241,243745,DepthScenes,duration_manipulation,aw,http://54.165.233.113/DepthDuration/depth_duration_Mturk/DepthDuration_HTML.html#92,92,1024,768,1024,768,2-19-2021,10-10-37,50,depth_duration_stimuli/002600_2014-06-24_14-27-04_094959634447_rgbf000074-resize_2/002600_2014-06-24_14-27-04_094959634447_rgbf000074-resize_2-target.png,750,2.7575,1.4709141274238224,3930,750,feet,631587,777883,58.0
245,243745,DepthScenes,duration_manipulation,aw,http://54.165.233.113/DepthDuration/depth_duration_Mturk/DepthDuration_HTML.html#92,92,1024,768,1024,768,2-19-2021,10-10-37,54,depth_duration_stimuli/000943_2014-06-09_19-31-07_260595134347_rgbf000128-resize_1/000943_2014-06-09_19-31-07_260595134347_rgbf000128-resize_1-target.png,750,1.9765,0.6864265927977837,2498,750,feet,631587,777883,58.0
246,243745,DepthScenes,duration_manipulation,aw,http://54.165.233.113/DepthDuration/depth_duration_Mturk/DepthDuration_HTML.html#92,92,1024,768,1024,768,2-19-2021,10-10-37,55,depth_duration_stimuli/001532_2014-06-20_16-50-41_260595134347_rgbf000081-resize_4/001532_2014-06-20_16-50-41_260595134347_rgbf000081-resize_4-target.png,750,1.5758333333333001,0.2941828254847645,4866,751,feet,631587,777883,58.0
249,243745,DepthScenes,duration_manipulation,aw,http://54.165.233.113/DepthDuration/depth_duration_Mturk/DepthDuration_HTML.html#92,92,1024,768,1024,768,2-19-2021,10-10-37,58,depth_duration_stimuli/001417_2014-06-19_16-25-36_260595134347_rgbf000115-resize_5/001417_2014-06-19_16-25-36_260595134347_rgbf000115-resize_5-target.png,750,4.6255,1.176731301939058,3099,751,feet,631587,777883,58.0
252,243745,DepthScenes,duration_manipulation,aw,http://54.165.233.113/DepthDuration/depth_duration_Mturk/DepthDuration_HTML.html#92,92,1024,768,1024,768,2-19-2021,10-10-37,61,depth_duration_stimuli/002678_2014-06-13_16-15-32_094959634447_rgbf000151-resize_6/002678_2014-06-13_16-15-32_094959634447_rgbf000151-resize_6-target.png,750,2.1830000000000003,0.9806094182825482,3081,749,feet,631587,777883,58.0
253,243745,DepthScenes,duration_manipulation,aw,http://54.165.233.113/DepthDuration/depth_duration_Mturk/DepthDuration_HTML.html#92,92,1024,768,1024,768,2-19-2021,10-10-37,62,depth_duration_stimuli/001584_2014-06-20_11-07-43_260595134347_rgbf000002-resize_1/001584_2014-06-20_11-07-43_260595134347_rgbf000002-resize_1-target.png,750,3.53,1.176731301939058,2568,749,feet,631587,777883,58.0
259,243745,DepthScenes,duration_manipulation,aw,http://54.165.233.113/DepthDuration/depth_duration_Mturk/DepthDuration_HTML.html#92,92,1024,768,1024,768,2-19-2021,10-10-37,68,depth_duration_stimuli/001059_2014-06-08_21-53-27_260595134347_rgbf000061-resize_4/001059_2014-06-08_21-53-27_260595134347_rgbf000061-resize_4-target.png,750,2.4185,0.6864265927977837,2698,751,feet,631587,777883,58.0
263,243745,DepthScenes,duration_manipulation,aw,http://54.165.233.113/DepthDuration/depth_duration_Mturk/DepthDuration_HTML.html#92,92,1024,768,1024,768,2-19-2021,10-10-37,72,depth_duration_stimuli/001447_2014-06-19_17-00-32_260595134347_rgbf000082-resize_5/001447_2014-06-19_17-00-32_260595134347_rgbf000082-resize_5-target.png,750,4.13775,0.6864265927977837,2378,751,feet,631587,777883,58.0
266,243745,DepthScenes,duration_manipulation,aw,http://54.165.233.113/DepthDuration/depth_duration_Mturk/DepthDuration_HTML.html#92,92,1024,768,1024,768,2-19-2021,10-10-37,75,depth_duration_stimuli/000137_2014-05-20_17-04-49_260595134347_rgbf000120-resize_1/000137_2014-05-20_17-04-49_260595134347_rgbf000120-resize_1-target.png,750,3.786,0.9806094182825482,5770,750,feet,631587,777883,58.0
278,243745,DepthScenes,duration_manipulation,aw,http://54.165.233.113/DepthDuration/depth_duration_Mturk/DepthDuration_HTML.html#92,92,1024,768,1024,768,2-19-2021,10-10-37,87,depth_duration_stimuli/001450_2014-06-19_17-02-03_260595134347_rgbf000203-resize_4/001450_2014-06-19_17-02-03_260595134347_rgbf000203-resize_4-target.png,750,4.0106666666667,1.5689750692520772,3867,750,feet,631587,777883,58.0
283,243745,DepthScenes,duration_manipulation,aw,http://54.165.233.113/DepthDuration/depth_duration_Mturk/DepthDuration_HTML.html#92,92,1024,768,1024,768,2-19-2021,10-10-37,92,depth_duration_stimuli/000409_2014-06-04_19-23-33_260595134347_rgbf000067-resize_0/000409_2014-06-04_19-23-33_260595134347_rgbf000067-resize_0-target.png,750,3.7335,0.9806094182825482,2793,750,feet,631587,777883,58.0
287,243745,DepthScenes,duration_manipulation,aw,http://54.165.233.113/DepthDuration/depth_duration_Mturk/DepthDuration_HTML.html#92,92,1024,768,1024,768,2-19-2021,10-10-37,96,depth_duration_stimuli/002136_2014-06-25_21-18-03_260595134347_rgbf000109-resize_3/002136_2014-06-25_21-18-03_260595134347_rgbf000109-resize_3-target.png,750,1.9569999999999999,0.4903047091412741,2411,752,feet,631587,777883,58.0
289,243745,DepthScenes,duration_manipulation,aw,http://54.165.233.113/DepthDuration/depth_duration_Mturk/DepthDuration_HTML.html#92,92,1024,768,1024,768,2-19-2021,10-10-37,98,depth_duration_stimuli/000927_2014-06-09_16-32-30_260595134347_rgbf000123-resize_3/000927_2014-06-09_16-32-30_260595134347_rgbf000123-resize_3-target.png,750,2.6785,1.0786703601108032,2562,750,feet,631587,777883,58.0
290,243745,DepthScenes,duration_manipulation,aw,http://54.165.233.113/DepthDuration/depth_duration_Mturk/DepthDuration_HTML.html#92,92,1024,768,1024,768,2-19-2021,10-10-37,99,depth_duration_stimuli/000917_2014-06-09_22-45-29_260595134347_rgbf000149-resize_3/000917_2014-06-09_22-45-29_260595134347_rgbf000149-resize_3-target.png,750,4.1865,1.4709141274238224,2760,749,feet,631587,777883,58.0
296,243745,DepthScenes,duration_manipulation,aw,http://54.165.233.113/DepthDuration/depth_duration_Mturk/DepthDuration_HTML.html#92,92,1024,768,1024,768,2-19-2021,10-10-37,105,depth_duration_stimuli/002464_2014-06-28_20-36-57_260595134347_rgbf000029-resize_0/002464_2014-06-28_20-36-57_260595134347_rgbf000029-resize_0-target.png,750,3.9525,0.4903047091412741,2393,750,feet,631587,777883,58.0
297,243745,DepthScenes,duration_manipulation,aw,http://54.165.233.113/DepthDuration/depth_duration_Mturk/DepthDuration_HTML.html#92,92,1024,768,1024,768,2-19-2021,10-10-37,106,depth_duration_stimuli/001199_2014-06-17_16-03-48_260595134347_rgbf000077-resize_0/001199_2014-06-17_16-03-48_260595134347_rgbf000077-resize_0-target.png,750,3.4375,1.0786703601108032,2714,751,feet,631587,777883,58.0
305,243745,DepthScenes,duration_manipulation,aw,http://54.165.233.113/DepthDuration/depth_duration_Mturk/DepthDuration_HTML.html#92,92,1024,768,1024,768,2-19-2021,10-10-37,114,depth_duration_stimuli/000830_2014-06-04_19-49-31_260595134347_rgbf000096-resize_2/000830_2014-06-04_19-49-31_260595134347_rgbf000096-resize_2-target.png,750,2.6353333333332998,0.8825484764542936,2937,750,feet,631587,777883,58.0
306,243745,DepthScenes,duration_manipulation,aw,http://54.165.233.113/DepthDuration/depth_duration_Mturk/DepthDuration_HTML.html#92,92,1024,768,1024,768,2-19-2021,10-10-37,115,depth_duration_stimuli/002763_2014-06-22_19-13-10_094959634447_rgbf000075-resize_4/002763_2014-06-22_19-13-10_094959634447_rgbf000075-resize_4-target.png,750,1.68375,0.3922437673130193,2218,750,feet,631587,777883,58.0
307,243745,DepthScenes,duration_manipulation,aw,http://54.165.233.113/DepthDuration/depth_duration_Mturk/DepthDuration_HTML.html#92,92,1024,768,1024,768,2-19-2021,10-10-37,116,depth_duration_stimuli/002657_2014-06-13_15-29-54_094959634447_rgbf000150-resize_1/002657_2014-06-13_15-29-54_094959634447_rgbf000150-resize_1-target.png,750,4.919,1.7650969529085871,3881,750,feet,631587,777883,58.0
309,243745,DepthScenes,duration_manipulation,aw,http://54.165.233.113/DepthDuration/depth_duration_Mturk/DepthDuration_HTML.html#92,92,1024,768,1024,768,2-19-2021,10-10-37,118,depth_duration_stimuli/001244_2014-06-17_16-47-45_260595134347_rgbf000030-resize_4/001244_2014-06-17_16-47-45_260595134347_rgbf000030-resize_4-target.png,750,2.0425,0.4903047091412741,2555,751,feet,631587,777883,58.0
319,243745,DepthScenes,duration_manipulation,aw,http://54.165.233.113/DepthDuration/depth_duration_Mturk/DepthDuration_HTML.html#92,92,1024,768,1024,768,2-19-2021,10-10-37,128,depth_duration_stimuli/001618_2014-06-20_11-37-31_260595134347_rgbf000027-resize_3/001618_2014-06-20_11-37-31_260595134347_rgbf000027-resize_3-target.png,750,1.8725,0.4903047091412741,2746,750,feet,631587,777883,58.0
331,243745,DepthScenes,duration_manipulation,aw,http://54.165.233.113/DepthDuration/depth_duration_Mturk/DepthDuration_HTML.html#92,92,1024,768,1024,768,2-19-2021,10-10-37,140,depth_duration_stimuli/002700_2014-06-22_11-27-02_094959634447_rgbf000124-resize_3/002700_2014-06-22_11-27-02_094959634447_rgbf000124-resize_3-target.png,750,3.301,1.176731301939058,2650,750,feet,631587,777883,58.0
334,243745,DepthScenes,duration_manipulation,aw,http://54.165.233.113/DepthDuration/depth_duration_Mturk/DepthDuration_HTML.html#92,92,1024,768,1024,768,2-19-2021,10-10-37,143,depth_duration_stimuli/002545_2014-06-24_13-38-53_094959634447_rgbf000080-resize_4/002545_2014-06-24_13-38-53_094959634447_rgbf000080-resize_4-target.png,750,1.9205,0.9806094182825482,2443,751,feet,631587,777883,58.0
335,243745,DepthScenes,duration_manipulation,aw,http://54.165.233.113/DepthDuration/depth_duration_Mturk/DepthDuration_HTML.html#92,92,1024,768,1024,768,2-19-2021,10-10-37,144,depth_duration_stimuli/001148_2014-06-17_15-26-42_260595134347_rgbf000129-resize_0/001148_2014-06-17_15-26-42_260595134347_rgbf000129-resize_0-target.png,750,4.368,1.3728531855955675,2505,750,feet,631587,777883,58.0
339,243745,DepthScenes,duration_manipulation,aw,http://54.165.233.113/DepthDuration/depth_duration_Mturk/DepthDuration_HTML.html#92,92,1024,768,1024,768,2-19-2021,10-10-37,148,depth_duration_stimuli/000740_2014-06-08_18-46-23_260595134347_rgbf000049-resize_6/000740_2014-06-08_18-46-23_260595134347_rgbf000049-resize_6-target.png,750,1.6869999999999998,0.588365650969529,2187,750,feet,631587,777883,58.0
344,243745,DepthScenes,duration_manipulation,aw,http://54.165.233.113/DepthDuration/depth_duration_Mturk/DepthDuration_HTML.html#92,92,1024,768,1024,768,2-19-2021,10-10-37,153,depth_duration_stimuli/002568_2014-06-24_13-59-21_094959634447_rgbf000062-resize_4/002568_2014-06-24_13-59-21_094959634447_rgbf000062-resize_4-target.png,750,3.015,1.176731301939058,2313,748,feet,631587,777883,58.0
345,243745,DepthScenes,duration_manipulation,aw,http://54.165.233.113/DepthDuration/depth_duration_Mturk/DepthDuration_HTML.html#92,92,1024,768,1024,768,2-19-2021,10-10-37,154,depth_duration_stimuli/000742_2014-06-08_18-48-09_260595134347_rgbf000164-resize_4/000742_2014-06-08_18-48-09_260595134347_rgbf000164-resize_4-target.png,750,4.632,1.5689750692520772,2394,750,feet,631587,777883,58.0
348,243745,DepthScenes,duration_manipulation,aw,http://54.165.233.113/DepthDuration/depth_duration_Mturk/DepthDuration_HTML.html#92,92,1024,768,1024,768,2-19-2021,10-10-37,157,depth_duration_stimuli/001100_2014-06-15_17-46-26_260595134347_rgbf000225-resize_2/001100_2014-06-15_17-46-26_260595134347_rgbf000225-resize_2-target.png,750,2.24,0.588365650969529,2406,750,feet,631587,777883,58.0
354,243745,DepthScenes,duration_manipulation,aw,http://54.165.233.113/DepthDuration/depth_duration_Mturk/DepthDuration_HTML.html#92,92,1024,768,1024,768,2-19-2021,10-10-37,163,depth_duration_stimuli/001555_2014-06-20_17-12-10_260595134347_rgbf000065-resize_4/001555_2014-06-20_17-12-10_260595134347_rgbf000065-resize_4-target.png,750,1.633,0.3922437673130193,2251,752,feet,631587,777883,58.0
357,243745,DepthScenes,duration_manipulation,aw,http://54.165.233.113/DepthDuration/depth_duration_Mturk/DepthDuration_HTML.html#92,92,1024,768,1024,768,2-19-2021,10-10-37,166,depth_duration_stimuli/003292_2014-05-14_21-53-49_094959634447_rgbf000100-resize_2/003292_2014-05-14_21-53-49_094959634447_rgbf000100-resize_2-target.png,750,3.4815,1.0786703601108032,3131,751,feet,631587,777883,58.0
363,243745,DepthScenes,duration_manipulation,aw,http://54.165.233.113/DepthDuration/depth_duration_Mturk/DepthDuration_HTML.html#92,92,1024,768,1024,768,2-19-2021,10-10-37,172,depth_duration_stimuli/002272_2014-06-28_18-53-56_260595134347_rgbf000067-resize_2/002272_2014-06-28_18-53-56_260595134347_rgbf000067-resize_2-target.png,750,1.138,0.588365650969529,2256,750,feet,631587,777883,58.0
365,243745,DepthScenes,duration_manipulation,aw,http://54.165.233.113/DepthDuration/depth_duration_Mturk/DepthDuration_HTML.html#92,92,1024,768,1024,768,2-19-2021,10-10-37,174,depth_duration_stimuli/001808_2014-06-26_20-50-58_260595134347_rgbf000029-resize_1/001808_2014-06-26_20-50-58_260595134347_rgbf000029-resize_1-target.png,750,4.249,1.0786703601108032,2776,750,feet,631587,777883,58.0
375,243745,DepthScenes,duration_manipulation,aw,http://54.165.233.113/DepthDuration/depth_duration_Mturk/DepthDuration_HTML.html#92,92,1024,768,1024,768,2-19-2021,10-10-37,184,depth_duration_stimuli/002750_2014-06-22_19-08-03_094959634447_rgbf000094-resize_4/002750_2014-06-22_19-08-03_094959634447_rgbf000094-resize_4-target.png,750,2.354,0.588365650969529,2938,750,feet,631587,777883,58.0
377,243745,DepthScenes,duration_manipulation,aw,http://54.165.233.113/DepthDuration/depth_duration_Mturk/DepthDuration_HTML.html#92,92,1024,768,1024,768,2-19-2021,10-10-37,186,depth_duration_stimuli/000929_2014-06-09_16-33-19_260595134347_rgbf000139-resize_0/000929_2014-06-09_16-33-19_260595134347_rgbf000139-resize_0-target.png,750,2.8680000000000003,1.2747922437673127,2937,749,feet,631587,777883,58.0
380,243745,DepthScenes,duration_manipulation,aw,http://54.165.233.113/DepthDuration/depth_duration_Mturk/DepthDuration_HTML.html#92,92,1024,768,1024,768,2-19-2021,10-10-37,189,depth_duration_stimuli/000734_2014-06-08_17-39-11_260595134347_rgbf000128-resize_2/000734_2014-06-08_17-39-11_260595134347_rgbf000128-resize_2-target.png,750,4.098,1.2747922437673127,2441,750,feet,631587,777883,58.0
383,243745,DepthScenes,duration_manipulation,aw,http://54.165.233.113/DepthDuration/depth_duration_Mturk/DepthDuration_HTML.html#92,92,1024,768,1024,768,2-19-2021,10-10-37,192,depth_duration_stimuli/003010_2014-06-15_12-54-35_094959634447_rgbf000112-resize_0/003010_2014-06-15_12-54-35_094959634447_rgbf000112-resize_0-target.png,750,3.1185,1.176731301939058,2617,750,feet,631587,777883,58.0
391,563901,DepthScenes,duration_manipulation,av,http://54.165.233.113/DepthDuration/depth_duration_Mturk/DepthDuration_HTML.html#87,87,1680,907,1680,1050,2-19-2021,10-11-20,8,depth_duration_stimuli/000486_2014-06-09_20-47-20_260595134347_rgbf000143-resize_2/000486_2014-06-09_20-47-20_260595134347_rgbf000143-resize_2-target.png,750,4.8325,0.6949666464523954,5547,749,feet,1251830,1359344,56.0
394,563901,DepthScenes,duration_manipulation,av,http://54.165.233.113/DepthDuration/depth_duration_Mturk/DepthDuration_HTML.html#87,87,1680,907,1680,1050,2-19-2021,10-11-20,11,depth_duration_stimuli/003495_2014-05-21_16-01-51_094959634447_rgbf000100-resize_3/003495_2014-05-21_16-01-51_094959634447_rgbf000100-resize_3-target.png,750,1.6255,0.46331109763493017,5083,753,feet,1251830,1359344,56.0
397,563901,DepthScenes,duration_manipulation,av,http://54.165.233.113/DepthDuration/depth_duration_Mturk/DepthDuration_HTML.html#87,87,1680,907,1680,1050,2-19-2021,10-11-20,14,depth_duration_stimuli/001449_2014-06-19_17-01-27_260595134347_rgbf000116-resize_2/001449_2014-06-19_17-01-27_260595134347_rgbf000116-resize_2-target.png,750,3.452,0.6949666464523954,8098,751,feet,1251830,1359344,56.0
400,563901,DepthScenes,duration_manipulation,av,http://54.165.233.113/DepthDuration/depth_duration_Mturk/DepthDuration_HTML.html#87,87,1680,907,1680,1050,2-19-2021,10-11-20,17,depth_duration_stimuli/002657_2014-06-13_15-29-54_094959634447_rgbf000150-resize_1/002657_2014-06-13_15-29-54_094959634447_rgbf000150-resize_1-target.png,750,4.919,0.6949666464523954,7355,752,feet,1251830,1359344,56.0
403,563901,DepthScenes,duration_manipulation,av,http://54.165.233.113/DepthDuration/depth_duration_Mturk/DepthDuration_HTML.html#87,87,1680,907,1680,1050,2-19-2021,10-11-20,20,depth_duration_stimuli/001032_2014-06-08_13-23-17_260595134347_rgbf000021-resize_3/001032_2014-06-08_13-23-17_260595134347_rgbf000021-resize_3-target.png,750,3.2725,0.9266221952698603,3898,750,feet,1251830,1359344,56.0
408,563901,DepthScenes,duration_manipulation,av,http://54.165.233.113/DepthDuration/depth_duration_Mturk/DepthDuration_HTML.html#87,87,1680,907,1680,1050,2-19-2021,10-11-20,25,depth_duration_stimuli/001132_2014-06-17_14-48-54_260595134347_rgbf000100-resize_2/001132_2014-06-17_14-48-54_260595134347_rgbf000100-resize_2-target.png,750,3.753,0.9266221952698603,3887,726,feet,1251830,1359344,56.0
409,563901,DepthScenes,duration_manipulation,av,http://54.165.233.113/DepthDuration/depth_duration_Mturk/DepthDuration_HTML.html#87,87,1680,907,1680,1050,2-19-2021,10-11-20,26,depth_duration_stimuli/001808_2014-06-26_20-50-58_260595134347_rgbf000029-resize_1/001808_2014-06-26_20-50-58_260595134347_rgbf000029-resize_1-target.png,750,4.249,1.3899332929047907,5305,762,feet,1251830,1359344,56.0
414,563901,DepthScenes,duration_manipulation,av,http://54.165.233.113/DepthDuration/depth_duration_Mturk/DepthDuration_HTML.html#87,87,1680,907,1680,1050,2-19-2021,10-11-20,31,depth_duration_stimuli/002600_2014-06-24_14-27-04_094959634447_rgbf000074-resize_2/002600_2014-06-24_14-27-04_094959634447_rgbf000074-resize_2-target.png,750,2.7575,0.5791388720436627,5239,749,feet,1251830,1359344,56.0
419,563901,DepthScenes,duration_manipulation,av,http://54.165.233.113/DepthDuration/depth_duration_Mturk/DepthDuration_HTML.html#87,87,1680,907,1680,1050,2-19-2021,10-11-20,36,depth_duration_stimuli/002579_2014-06-24_14-08-03_094959634447_rgbf000061-resize_2/002579_2014-06-24_14-08-03_094959634447_rgbf000061-resize_2-target.png,750,2.223125,0.5791388720436627,6817,756,feet,1251830,1359344,56.0
425,563901,DepthScenes,duration_manipulation,av,http://54.165.233.113/DepthDuration/depth_duration_Mturk/DepthDuration_HTML.html#87,87,1680,907,1680,1050,2-19-2021,10-11-20,42,depth_duration_stimuli/000810_2014-06-08_17-20-01_260595134347_rgbf000105-resize_0/000810_2014-06-08_17-20-01_260595134347_rgbf000105-resize_0-target.png,750,1.4865,0.5791388720436627,6440,750,feet,1251830,1359344,56.0
426,563901,DepthScenes,duration_manipulation,av,http://54.165.233.113/DepthDuration/depth_duration_Mturk/DepthDuration_HTML.html#87,87,1680,907,1680,1050,2-19-2021,10-11-20,43,depth_duration_stimuli/000927_2014-06-09_16-32-30_260595134347_rgbf000123-resize_3/000927_2014-06-09_16-32-30_260595134347_rgbf000123-resize_3-target.png,750,2.6785,0.6949666464523954,4786,760,feet,1251830,1359344,56.0
430,563901,DepthScenes,duration_manipulation,av,http://54.165.233.113/DepthDuration/depth_duration_Mturk/DepthDuration_HTML.html#87,87,1680,907,1680,1050,2-19-2021,10-11-20,47,depth_duration_stimuli/002199_2014-06-28_18-33-56_260595134347_rgbf000074-resize_0/002199_2014-06-28_18-33-56_260595134347_rgbf000074-resize_0-target.png,750,1.996,0.5791388720436627,5374,814,feet,1251830,1359344,56.0
433,563901,DepthScenes,duration_manipulation,av,http://54.165.233.113/DepthDuration/depth_duration_Mturk/DepthDuration_HTML.html#87,87,1680,907,1680,1050,2-19-2021,10-11-20,50,depth_duration_stimuli/000409_2014-06-04_19-23-33_260595134347_rgbf000067-resize_0/000409_2014-06-04_19-23-33_260595134347_rgbf000067-resize_0-target.png,750,3.7335,0.9266221952698603,5276,750,feet,1251830,1359344,56.0
434,563901,DepthScenes,duration_manipulation,av,http://54.165.233.113/DepthDuration/depth_duration_Mturk/DepthDuration_HTML.html#87,87,1680,907,1680,1050,2-19-2021,10-11-20,51,depth_duration_stimuli/000009_2014-05-26_14-32-05_260595134347_rgbf000034-resize_3/000009_2014-05-26_14-32-05_260595134347_rgbf000034-resize_3-target.png,750,3.8715,1.8532443905397207,4974,758,feet,1251830,1359344,56.0
445,563901,DepthScenes,duration_manipulation,av,http://54.165.233.113/DepthDuration/depth_duration_Mturk/DepthDuration_HTML.html#87,87,1680,907,1680,1050,2-19-2021,10-11-20,62,depth_duration_stimuli/001164_2014-06-17_15-35-46_260595134347_rgbf000085-resize_3/001164_2014-06-17_15-35-46_260595134347_rgbf000085-resize_3-target.png,750,2.354,0.9266221952698603,4431,662,feet,1251830,1359344,56.0
449,563901,DepthScenes,duration_manipulation,av,http://54.165.233.113/DepthDuration/depth_duration_Mturk/DepthDuration_HTML.html#87,87,1680,907,1680,1050,2-19-2021,10-11-20,66,depth_duration_stimuli/002139_2014-06-25_21-19-37_260595134347_rgbf000124-resize_2/002139_2014-06-25_21-19-37_260595134347_rgbf000124-resize_2-target.png,750,2.1069999999999998,0.6949666464523954,5028,795,feet,1251830,1359344,56.0
452,563901,DepthScenes,duration_manipulation,av,http://54.165.233.113/DepthDuration/depth_duration_Mturk/DepthDuration_HTML.html#87,87,1680,907,1680,1050,2-19-2021,10-11-20,69,depth_duration_stimuli/001570_2014-06-20_17-21-09_260595134347_rgbf000135-resize_4/001570_2014-06-20_17-21-09_260595134347_rgbf000135-resize_4-target.png,750,4.467,1.8532443905397207,4825,750,feet,1251830,1359344,56.0
454,563901,DepthScenes,duration_manipulation,av,http://54.165.233.113/DepthDuration/depth_duration_Mturk/DepthDuration_HTML.html#87,87,1680,907,1680,1050,2-19-2021,10-11-20,71,depth_duration_stimuli/003092_2014-06-24_21-01-49_094959634447_rgbf000049-resize_2/003092_2014-06-24_21-01-49_094959634447_rgbf000049-resize_2-target.png,750,1.666,0.5791388720436627,4086,738,feet,1251830,1359344,56.0
459,563901,DepthScenes,duration_manipulation,av,http://54.165.233.113/DepthDuration/depth_duration_Mturk/DepthDuration_HTML.html#87,87,1680,907,1680,1050,2-19-2021,10-11-20,76,depth_duration_stimuli/002464_2014-06-28_20-36-57_260595134347_rgbf000029-resize_0/002464_2014-06-28_20-36-57_260595134347_rgbf000029-resize_0-target.png,750,3.9525,0.5791388720436627,5271,746,feet,1251830,1359344,56.0
461,563901,DepthScenes,duration_manipulation,av,http://54.165.233.113/DepthDuration/depth_duration_Mturk/DepthDuration_HTML.html#87,87,1680,907,1680,1050,2-19-2021,10-11-20,78,depth_duration_stimuli/002949_2014-06-26_15-57-42_094959634447_rgbf000079-resize_1/002949_2014-06-26_15-57-42_094959634447_rgbf000079-resize_1-target.png,750,1.8915,0.46331109763493017,5337,769,feet,1251830,1359344,56.0
464,563901,DepthScenes,duration_manipulation,av,http://54.165.233.113/DepthDuration/depth_duration_Mturk/DepthDuration_HTML.html#87,87,1680,907,1680,1050,2-19-2021,10-11-20,81,depth_duration_stimuli/002039_2014-06-24_20-22-38_260595134347_rgbf000084-resize_1/002039_2014-06-24_20-22-38_260595134347_rgbf000084-resize_1-target.png,750,4.408,0.5791388720436627,4170,745,feet,1251830,1359344,56.0
467,563901,DepthScenes,duration_manipulation,av,http://54.165.233.113/DepthDuration/depth_duration_Mturk/DepthDuration_HTML.html#87,87,1680,907,1680,1050,2-19-2021,10-11-20,84,depth_duration_stimuli/002570_2014-06-24_13-59-54_094959634447_rgbf000059-resize_0/002570_2014-06-24_13-59-54_094959634447_rgbf000059-resize_0-target.png,750,4.037,2.3165554881746506,4730,740,feet,1251830,1359344,56.0
476,563901,DepthScenes,duration_manipulation,av,http://54.165.233.113/DepthDuration/depth_duration_Mturk/DepthDuration_HTML.html#87,87,1680,907,1680,1050,2-19-2021,10-11-20,93,depth_duration_stimuli/002509_2014-06-24_13-19-22_094959634447_rgbf000077-resize_0/002509_2014-06-24_13-19-22_094959634447_rgbf000077-resize_0-target.png,750,1.3065,0.46331109763493017,4751,737,feet,1251830,1359344,56.0
477,563901,DepthScenes,duration_manipulation,av,http://54.165.233.113/DepthDuration/depth_duration_Mturk/DepthDuration_HTML.html#87,87,1680,907,1680,1050,2-19-2021,10-11-20,94,depth_duration_stimuli/002340_2014-06-28_20-05-46_260595134347_rgbf000113-resize_0/002340_2014-06-28_20-05-46_260595134347_rgbf000113-resize_0-target.png,750,2.4735,0.6949666464523954,4280,762,feet,1251830,1359344,56.0
482,563901,DepthScenes,duration_manipulation,av,http://54.165.233.113/DepthDuration/depth_duration_Mturk/DepthDuration_HTML.html#87,87,1680,907,1680,1050,2-19-2021,10-11-20,99,depth_duration_stimuli/000854_2014-06-09_19-43-13_260595134347_rgbf000066-resize_0/000854_2014-06-09_19-43-13_260595134347_rgbf000066-resize_0-target.png,750,3.068,1.3899332929047907,4763,753,feet,1251830,1359344,56.0
491,563901,DepthScenes,duration_manipulation,av,http://54.165.233.113/DepthDuration/depth_duration_Mturk/DepthDuration_HTML.html#87,87,1680,907,1680,1050,2-19-2021,10-11-20,108,depth_duration_stimuli/001815_2014-06-26_20-52-55_260595134347_rgbf000020-resize_0/001815_2014-06-26_20-52-55_260595134347_rgbf000020-resize_0-target.png,750,3.3865,0.9266221952698603,5032,753,feet,1251830,1359344,56.0
496,563901,DepthScenes,duration_manipulation,av,http://54.165.233.113/DepthDuration/depth_duration_Mturk/DepthDuration_HTML.html#87,87,1680,907,1680,1050,2-19-2021,10-11-20,113,depth_duration_stimuli/000709_2014-06-08_13-51-55_260595134347_rgbf000068-resize_3/000709_2014-06-08_13-51-55_260595134347_rgbf000068-resize_3-target.png,750,1.8030000000000002,0.5791388720436627,4448,754,feet,1251830,1359344,56.0
497,563901,DepthScenes,duration_manipulation,av,http://54.165.233.113/DepthDuration/depth_duration_Mturk/DepthDuration_HTML.html#87,87,1680,907,1680,1050,2-19-2021,10-11-20,114,depth_duration_stimuli/000753_2014-06-08_21-57-44_260595134347_rgbf000123-resize_3/000753_2014-06-08_21-57-44_260595134347_rgbf000123-resize_3-target.png,750,1.916,0.46331109763493017,4524,739,feet,1251830,1359344,56.0
500,563901,DepthScenes,duration_manipulation,av,http://54.165.233.113/DepthDuration/depth_duration_Mturk/DepthDuration_HTML.html#87,87,1680,907,1680,1050,2-19-2021,10-11-20,117,depth_duration_stimuli/000734_2014-06-08_17-39-11_260595134347_rgbf000128-resize_2/000734_2014-06-08_17-39-11_260595134347_rgbf000128-resize_2-target.png,750,4.098,1.8532443905397207,5408,745,feet,1251830,1359344,56.0
504,563901,DepthScenes,duration_manipulation,av,http://54.165.233.113/DepthDuration/depth_duration_Mturk/DepthDuration_HTML.html#87,87,1680,907,1680,1050,2-19-2021,10-11-20,121,depth_duration_stimuli/001094_2014-06-15_17-36-00_260595134347_rgbf000205-resize_0/001094_2014-06-15_17-36-00_260595134347_rgbf000205-resize_0-target.png,750,4.2175,1.3899332929047907,4046,750,feet,1251830,1359344,56.0
509,563901,DepthScenes,duration_manipulation,av,http://54.165.233.113/DepthDuration/depth_duration_Mturk/DepthDuration_HTML.html#87,87,1680,907,1680,1050,2-19-2021,10-11-20,126,depth_duration_stimuli/000720_2014-06-08_18-37-27_260595134347_rgbf000203-resize_4/000720_2014-06-08_18-37-27_260595134347_rgbf000203-resize_4-target.png,750,1.558,0.5791388720436627,4358,752,feet,1251830,1359344,56.0
512,563901,DepthScenes,duration_manipulation,av,http://54.165.233.113/DepthDuration/depth_duration_Mturk/DepthDuration_HTML.html#87,87,1680,907,1680,1050,2-19-2021,10-11-20,129,depth_duration_stimuli/000677_2014-06-08_23-10-32_260595134347_rgbf000158-resize_6/000677_2014-06-08_23-10-32_260595134347_rgbf000158-resize_6-target.png,750,3.556,0.9266221952698603,3880,752,feet,1251830,1359344,56.0
518,563901,DepthScenes,duration_manipulation,av,http://54.165.233.113/DepthDuration/depth_duration_Mturk/DepthDuration_HTML.html#87,87,1680,907,1680,1050,2-19-2021,10-11-20,135,depth_duration_stimuli/001450_2014-06-19_17-02-03_260595134347_rgbf000203-resize_4/001450_2014-06-19_17-02-03_260595134347_rgbf000203-resize_4-target.png,750,4.0106666666667,1.737416616130988,4628,749,feet,1251830,1359344,56.0
522,563901,DepthScenes,duration_manipulation,av,http://54.165.233.113/DepthDuration/depth_duration_Mturk/DepthDuration_HTML.html#87,87,1680,907,1680,1050,2-19-2021,10-11-20,139,depth_duration_stimuli/002905_2014-06-03_18-04-43_094959634447_rgbf000151-resize_2/002905_2014-06-03_18-04-43_094959634447_rgbf000151-resize_2-target.png,750,2.0295,0.6949666464523954,4000,737,feet,1251830,1359344,56.0
524,563901,DepthScenes,duration_manipulation,av,http://54.165.233.113/DepthDuration/depth_duration_Mturk/DepthDuration_HTML.html#87,87,1680,907,1680,1050,2-19-2021,10-11-20,141,depth_duration_stimuli/001214_2014-06-17_16-13-55_260595134347_rgbf000111-resize_0/001214_2014-06-17_16-13-55_260595134347_rgbf000111-resize_0-target.png,750,2.6505,0.6949666464523954,3966,742,feet,1251830,1359344,56.0
536,563901,DepthScenes,duration_manipulation,av,http://54.165.233.113/DepthDuration/depth_duration_Mturk/DepthDuration_HTML.html#87,87,1680,907,1680,1050,2-19-2021,10-11-20,153,depth_duration_stimuli/000740_2014-06-08_18-46-23_260595134347_rgbf000049-resize_6/000740_2014-06-08_18-46-23_260595134347_rgbf000049-resize_6-target.png,750,1.6869999999999998,0.46331109763493017,4496,747,feet,1251830,1359344,56.0
539,563901,DepthScenes,duration_manipulation,av,http://54.165.233.113/DepthDuration/depth_duration_Mturk/DepthDuration_HTML.html#87,87,1680,907,1680,1050,2-19-2021,10-11-20,156,depth_duration_stimuli/002467_2014-06-28_20-38-07_260595134347_rgbf000026-resize_2/002467_2014-06-28_20-38-07_260595134347_rgbf000026-resize_2-target.png,750,4.742,0.6949666464523954,4507,745,feet,1251830,1359344,56.0
541,563901,DepthScenes,duration_manipulation,av,http://54.165.233.113/DepthDuration/depth_duration_Mturk/DepthDuration_HTML.html#87,87,1680,907,1680,1050,2-19-2021,10-11-20,158,depth_duration_stimuli/000555_2014-06-09_22-42-23_260595134347_rgbf000037-resize_4/000555_2014-06-09_22-42-23_260595134347_rgbf000037-resize_4-target.png,750,1.9765,0.6949666464523954,4705,828,feet,1251830,1359344,56.0
542,563901,DepthScenes,duration_manipulation,av,http://54.165.233.113/DepthDuration/depth_duration_Mturk/DepthDuration_HTML.html#87,87,1680,907,1680,1050,2-19-2021,10-11-20,159,depth_duration_stimuli/000735_2014-06-08_18-23-50_260595134347_rgbf000163-resize_2/000735_2014-06-08_18-23-50_260595134347_rgbf000163-resize_2-target.png,750,4.1695,1.3899332929047907,4050,755,feet,1251830,1359344,56.0
546,563901,DepthScenes,duration_manipulation,av,http://54.165.233.113/DepthDuration/depth_duration_Mturk/DepthDuration_HTML.html#87,87,1680,907,1680,1050,2-19-2021,10-11-20,163,depth_duration_stimuli/002660_2014-06-13_15-44-18_094959634447_rgbf001878-resize_2/002660_2014-06-13_15-44-18_094959634447_rgbf001878-resize_2-target.png,750,3.576,1.3899332929047907,4577,741,feet,1251830,1359344,56.0
553,563901,DepthScenes,duration_manipulation,av,http://54.165.233.113/DepthDuration/depth_duration_Mturk/DepthDuration_HTML.html#87,87,1680,907,1680,1050,2-19-2021,10-11-20,170,depth_duration_stimuli/002700_2014-06-22_11-27-02_094959634447_rgbf000124-resize_3/002700_2014-06-22_11-27-02_094959634447_rgbf000124-resize_3-target.png,750,3.301,1.3899332929047907,4599,745,feet,1251830,1359344,56.0
557,563901,DepthScenes,duration_manipulation,av,http://54.165.233.113/DepthDuration/depth_duration_Mturk/DepthDuration_HTML.html#87,87,1680,907,1680,1050,2-19-2021,10-11-20,174,depth_duration_stimuli/002103_2014-06-25_20-00-40_260595134347_rgbf000049-resize_0/002103_2014-06-25_20-00-40_260595134347_rgbf000049-resize_0-target.png,750,4.105,1.8532443905397207,4447,754,feet,1251830,1359344,56.0
558,563901,DepthScenes,duration_manipulation,av,http://54.165.233.113/DepthDuration/depth_duration_Mturk/DepthDuration_HTML.html#87,87,1680,907,1680,1050,2-19-2021,10-11-20,175,depth_duration_stimuli/003546_2014-05-22_15-48-53_094959634447_rgbf004816-resize_3/003546_2014-05-22_15-48-53_094959634447_rgbf004816-resize_3-target.png,750,2.62625,0.6949666464523954,5156,754,feet,1251830,1359344,56.0
560,563901,DepthScenes,duration_manipulation,av,http://54.165.233.113/DepthDuration/depth_duration_Mturk/DepthDuration_HTML.html#87,87,1680,907,1680,1050,2-19-2021,10-11-20,177,depth_duration_stimuli/002057_2014-06-24_21-00-13_260595134347_rgbf000120-resize_1/002057_2014-06-24_21-00-13_260595134347_rgbf000120-resize_1-target.png,750,2.967,1.8532443905397207,5434,745,feet,1251830,1359344,56.0
564,563901,DepthScenes,duration_manipulation,av,http://54.165.233.113/DepthDuration/depth_duration_Mturk/DepthDuration_HTML.html#87,87,1680,907,1680,1050,2-19-2021,10-11-20,181,depth_duration_stimuli/000542_2014-06-08_18-27-08_260595134347_rgbf000118-resize_1/000542_2014-06-08_18-27-08_260595134347_rgbf000118-resize_1-target.png,750,3.0,0.9266221952698603,5435,748,feet,1251830,1359344,56.0
565,563901,DepthScenes,duration_manipulation,av,http://54.165.233.113/DepthDuration/depth_duration_Mturk/DepthDuration_HTML.html#87,87,1680,907,1680,1050,2-19-2021,10-11-20,182,depth_duration_stimuli/002043_2014-06-24_20-29-38_260595134347_rgbf000039-resize_4/002043_2014-06-24_20-29-38_260595134347_rgbf000039-resize_4-target.png,750,2.8435,1.1582777440873253,21428,758,feet,1251830,1359344,56.0
566,563901,DepthScenes,duration_manipulation,av,http://54.165.233.113/DepthDuration/depth_duration_Mturk/DepthDuration_HTML.html#87,87,1680,907,1680,1050,2-19-2021,10-11-20,183,depth_duration_stimuli/001571_2014-06-20_17-21-32_260595134347_rgbf000089-resize_1/001571_2014-06-20_17-21-32_260595134347_rgbf000089-resize_1-target.png,750,1.86,0.6949666464523954,4611,742,feet,1251830,1359344,56.0
577,846649,DepthScenes,duration_manipulation,aj,http://54.165.233.113/DepthDuration/depth_duration_Mturk/DepthDuration_HTML.html#39,39,1366,768,1366,768,2-19-2021,10-11-2,2,depth_duration_stimuli/002213_2014-06-28_18-37-58_260595134347_rgbf000055-resize_1/002213_2014-06-28_18-37-58_260595134347_rgbf000055-resize_1-target.png,750,3.62,0.9402985074626866,4007,749,meters,1036210,1351972,35.0
579,846649,DepthScenes,duration_manipulation,aj,http://54.165.233.113/DepthDuration/depth_duration_Mturk/DepthDuration_HTML.html#39,39,1366,768,1366,768,2-19-2021,10-11-2,4,depth_duration_stimuli/002340_2014-06-28_20-05-46_260595134347_rgbf000113-resize_0/002340_2014-06-28_20-05-46_260595134347_rgbf000113-resize_0-target.png,750,2.4735,1.128358208955224,2297,750,meters,1036210,1351972,35.0
581,846649,DepthScenes,duration_manipulation,aj,http://54.165.233.113/DepthDuration/depth_duration_Mturk/DepthDuration_HTML.html#39,39,1366,768,1366,768,2-19-2021,10-11-2,6,depth_duration_stimuli/000739_2014-06-08_18-45-58_260595134347_rgbf000068-resize_1/000739_2014-06-08_18-45-58_260595134347_rgbf000068-resize_1-target.png,750,3.534,0.564179104477612,2185,749,meters,1036210,1351972,35.0
583,846649,DepthScenes,duration_manipulation,aj,http://54.165.233.113/DepthDuration/depth_duration_Mturk/DepthDuration_HTML.html#39,39,1366,768,1366,768,2-19-2021,10-11-2,8,depth_duration_stimuli/001181_2014-06-17_15-50-57_260595134347_rgbf000106-resize_4/001181_2014-06-17_15-50-57_260595134347_rgbf000106-resize_4-target.png,750,4.149,1.128358208955224,2065,750,meters,1036210,1351972,35.0
586,846649,DepthScenes,duration_manipulation,aj,http://54.165.233.113/DepthDuration/depth_duration_Mturk/DepthDuration_HTML.html#39,39,1366,768,1366,768,2-19-2021,10-11-2,11,depth_duration_stimuli/002987_2014-06-08_18-48-20_094959634447_rgbf000022-resize_0/002987_2014-06-08_18-48-20_094959634447_rgbf000022-resize_0-target.png,750,2.6775,0.7522388059701492,1866,750,meters,1036210,1351972,35.0
591,846649,DepthScenes,duration_manipulation,aj,http://54.165.233.113/DepthDuration/depth_duration_Mturk/DepthDuration_HTML.html#39,39,1366,768,1366,768,2-19-2021,10-11-2,16,depth_duration_stimuli/000409_2014-06-04_19-23-33_260595134347_rgbf000067-resize_0/000409_2014-06-04_19-23-33_260595134347_rgbf000067-resize_0-target.png,750,3.7335,0.7522388059701492,2034,750,meters,1036210,1351972,35.0
592,846649,DepthScenes,duration_manipulation,aj,http://54.165.233.113/DepthDuration/depth_duration_Mturk/DepthDuration_HTML.html#39,39,1366,768,1366,768,2-19-2021,10-11-2,17,depth_duration_stimuli/002272_2014-06-28_18-53-56_260595134347_rgbf000067-resize_2/002272_2014-06-28_18-53-56_260595134347_rgbf000067-resize_2-target.png,750,1.138,1.128358208955224,1794,750,meters,1036210,1351972,35.0
600,846649,DepthScenes,duration_manipulation,aj,http://54.165.233.113/DepthDuration/depth_duration_Mturk/DepthDuration_HTML.html#39,39,1366,768,1366,768,2-19-2021,10-11-2,25,depth_duration_stimuli/002131_2014-06-25_21-12-01_260595134347_rgbf000083-resize_0/002131_2014-06-25_21-12-01_260595134347_rgbf000083-resize_0-target.png,750,1.7685,0.7522388059701492,1898,750,meters,1036210,1351972,35.0
602,846649,DepthScenes,duration_manipulation,aj,http://54.165.233.113/DepthDuration/depth_duration_Mturk/DepthDuration_HTML.html#39,39,1366,768,1366,768,2-19-2021,10-11-2,27,depth_duration_stimuli/000720_2014-06-08_18-37-27_260595134347_rgbf000203-resize_4/000720_2014-06-08_18-37-27_260595134347_rgbf000203-resize_4-target.png,750,1.558,1.128358208955224,1866,750,meters,1036210,1351972,35.0
604,846649,DepthScenes,duration_manipulation,aj,http://54.165.233.113/DepthDuration/depth_duration_Mturk/DepthDuration_HTML.html#39,39,1366,768,1366,768,2-19-2021,10-11-2,29,depth_duration_stimuli/002663_2014-06-13_15-50-26_094959634447_rgbf000075-resize_1/002663_2014-06-13_15-50-26_094959634447_rgbf000075-resize_1-target.png,750,4.7495,0.9402985074626866,8803,750,meters,1036210,1351972,35.0
618,846649,DepthScenes,duration_manipulation,aj,http://54.165.233.113/DepthDuration/depth_duration_Mturk/DepthDuration_HTML.html#39,39,1366,768,1366,768,2-19-2021,10-11-2,43,depth_duration_stimuli/001066_2014-06-08_22-03-20_260595134347_rgbf000066-resize_4/001066_2014-06-08_22-03-20_260595134347_rgbf000066-resize_4-target.png,750,4.2330000000000005,1.5044776119402985,2947,766,meters,1036210,1351972,35.0
624,846649,DepthScenes,duration_manipulation,aj,http://54.165.233.113/DepthDuration/depth_duration_Mturk/DepthDuration_HTML.html#39,39,1366,768,1366,768,2-19-2021,10-11-2,49,depth_duration_stimuli/000636_2014-06-08_16-39-02_260595134347_rgbf000108-resize_4/000636_2014-06-08_16-39-02_260595134347_rgbf000108-resize_4-target.png,750,2.682,1.128358208955224,2546,750,meters,1036210,1351972,35.0
625,846649,DepthScenes,duration_manipulation,aj,http://54.165.233.113/DepthDuration/depth_duration_Mturk/DepthDuration_HTML.html#39,39,1366,768,1366,768,2-19-2021,10-11-2,50,depth_duration_stimuli/002549_2014-06-24_13-41-39_094959634447_rgbf000022-resize_3/002549_2014-06-24_13-41-39_094959634447_rgbf000022-resize_3-target.png,750,1.476,0.9402985074626866,2769,750,meters,1036210,1351972,35.0
626,846649,DepthScenes,duration_manipulation,aj,http://54.165.233.113/DepthDuration/depth_duration_Mturk/DepthDuration_HTML.html#39,39,1366,768,1366,768,2-19-2021,10-11-2,51,depth_duration_stimuli/000505_2014-06-08_23-03-23_260595134347_rgbf000091-resize_0/000505_2014-06-08_23-03-23_260595134347_rgbf000091-resize_0-target.png,750,3.3105,0.9402985074626866,2585,750,meters,1036210,1351972,35.0
634,846649,DepthScenes,duration_manipulation,aj,http://54.165.233.113/DepthDuration/depth_duration_Mturk/DepthDuration_HTML.html#39,39,1366,768,1366,768,2-19-2021,10-11-2,59,depth_duration_stimuli/001571_2014-06-20_17-21-32_260595134347_rgbf000089-resize_1/001571_2014-06-20_17-21-32_260595134347_rgbf000089-resize_1-target.png,750,1.86,0.9402985074626866,2538,750,meters,1036210,1351972,35.0
637,846649,DepthScenes,duration_manipulation,aj,http://54.165.233.113/DepthDuration/depth_duration_Mturk/DepthDuration_HTML.html#39,39,1366,768,1366,768,2-19-2021,10-11-2,62,depth_duration_stimuli/002425_2014-06-28_20-27-29_260595134347_rgbf000031-resize_8/002425_2014-06-28_20-27-29_260595134347_rgbf000031-resize_8-target.png,750,3.8960000000000004,1.128358208955224,2434,750,meters,1036210,1351972,35.0
638,846649,DepthScenes,duration_manipulation,aj,http://54.165.233.113/DepthDuration/depth_duration_Mturk/DepthDuration_HTML.html#39,39,1366,768,1366,768,2-19-2021,10-11-2,63,depth_duration_stimuli/001555_2014-06-20_17-12-10_260595134347_rgbf000065-resize_4/001555_2014-06-20_17-12-10_260595134347_rgbf000065-resize_4-target.png,750,1.633,0.7522388059701492,2434,750,meters,1036210,1351972,35.0
642,846649,DepthScenes,duration_manipulation,aj,http://54.165.233.113/DepthDuration/depth_duration_Mturk/DepthDuration_HTML.html#39,39,1366,768,1366,768,2-19-2021,10-11-2,67,depth_duration_stimuli/002444_2014-06-28_20-32-08_260595134347_rgbf000027-resize_0/002444_2014-06-28_20-32-08_260595134347_rgbf000027-resize_0-target.png,750,4.388999999999999,0.9402985074626866,2418,749,meters,1036210,1351972,35.0
648,846649,DepthScenes,duration_manipulation,aj,http://54.165.233.113/DepthDuration/depth_duration_Mturk/DepthDuration_HTML.html#39,39,1366,768,1366,768,2-19-2021,10-11-2,73,depth_duration_stimuli/001447_2014-06-19_17-00-32_260595134347_rgbf000082-resize_5/001447_2014-06-19_17-00-32_260595134347_rgbf000082-resize_5-target.png,750,4.13775,1.128358208955224,2420,750,meters,1036210,1351972,35.0
656,846649,DepthScenes,duration_manipulation,aj,http://54.165.233.113/DepthDuration/depth_duration_Mturk/DepthDuration_HTML.html#39,39,1366,768,1366,768,2-19-2021,10-11-2,81,depth_duration_stimuli/001059_2014-06-08_21-53-27_260595134347_rgbf000061-resize_4/001059_2014-06-08_21-53-27_260595134347_rgbf000061-resize_4-target.png,750,2.4185,1.128358208955224,2890,750,meters,1036210,1351972,35.0
657,846649,DepthScenes,duration_manipulation,aj,http://54.165.233.113/DepthDuration/depth_duration_Mturk/DepthDuration_HTML.html#39,39,1366,768,1366,768,2-19-2021,10-11-2,82,depth_duration_stimuli/003010_2014-06-15_12-54-35_094959634447_rgbf000112-resize_0/003010_2014-06-15_12-54-35_094959634447_rgbf000112-resize_0-target.png,750,3.1185,0.7522388059701492,2657,750,meters,1036210,1351972,35.0
667,846649,DepthScenes,duration_manipulation,aj,http://54.165.233.113/DepthDuration/depth_duration_Mturk/DepthDuration_HTML.html#39,39,1366,768,1366,768,2-19-2021,10-11-2,92,depth_duration_stimuli/001806_2014-06-26_20-50-20_260595134347_rgbf000091-resize_1/001806_2014-06-26_20-50-20_260595134347_rgbf000091-resize_1-target.png,750,2.7305,0.7522388059701492,3041,751,meters,1036210,1351972,35.0
676,846649,DepthScenes,duration_manipulation,aj,http://54.165.233.113/DepthDuration/depth_duration_Mturk/DepthDuration_HTML.html#39,39,1366,768,1366,768,2-19-2021,10-11-2,101,depth_duration_stimuli/001199_2014-06-17_16-03-48_260595134347_rgbf000077-resize_0/001199_2014-06-17_16-03-48_260595134347_rgbf000077-resize_0-target.png,750,3.4375,1.3164179104477614,2369,750,meters,1036210,1351972,35.0
679,846649,DepthScenes,duration_manipulation,aj,http://54.165.233.113/DepthDuration/depth_duration_Mturk/DepthDuration_HTML.html#39,39,1366,768,1366,768,2-19-2021,10-11-2,104,depth_duration_stimuli/002136_2014-06-25_21-18-03_260595134347_rgbf000109-resize_3/002136_2014-06-25_21-18-03_260595134347_rgbf000109-resize_3-target.png,750,1.9569999999999999,1.128358208955224,2297,750,meters,1036210,1351972,35.0
682,846649,DepthScenes,duration_manipulation,aj,http://54.165.233.113/DepthDuration/depth_duration_Mturk/DepthDuration_HTML.html#39,39,1366,768,1366,768,2-19-2021,10-11-2,107,depth_duration_stimuli/000009_2014-05-26_14-32-05_260595134347_rgbf000034-resize_3/000009_2014-05-26_14-32-05_260595134347_rgbf000034-resize_3-target.png,750,3.8715,0.9402985074626866,3218,750,meters,1036210,1351972,35.0
686,846649,DepthScenes,duration_manipulation,aj,http://54.165.233.113/DepthDuration/depth_duration_Mturk/DepthDuration_HTML.html#39,39,1366,768,1366,768,2-19-2021,10-11-2,111,depth_duration_stimuli/002678_2014-06-13_16-15-32_094959634447_rgbf000151-resize_6/002678_2014-06-13_16-15-32_094959634447_rgbf000151-resize_6-target.png,750,2.1830000000000003,1.128358208955224,2273,750,meters,1036210,1351972,35.0
687,846649,DepthScenes,duration_manipulation,aj,http://54.165.233.113/DepthDuration/depth_duration_Mturk/DepthDuration_HTML.html#39,39,1366,768,1366,768,2-19-2021,10-11-2,112,depth_duration_stimuli/002964_2014-06-08_17-46-11_094959634447_rgbf000091-resize_4/002964_2014-06-08_17-46-11_094959634447_rgbf000091-resize_4-target.png,750,1.6909999999999998,0.9402985074626866,3057,750,meters,1036210,1351972,35.0
690,846649,DepthScenes,duration_manipulation,aj,http://54.165.233.113/DepthDuration/depth_duration_Mturk/DepthDuration_HTML.html#39,39,1366,768,1366,768,2-19-2021,10-11-2,115,depth_duration_stimuli/002057_2014-06-24_21-00-13_260595134347_rgbf000120-resize_1/002057_2014-06-24_21-00-13_260595134347_rgbf000120-resize_1-target.png,750,2.967,1.3164179104477614,2826,750,meters,1036210,1351972,35.0
692,846649,DepthScenes,duration_manipulation,aj,http://54.165.233.113/DepthDuration/depth_duration_Mturk/DepthDuration_HTML.html#39,39,1366,768,1366,768,2-19-2021,10-11-2,117,depth_duration_stimuli/001094_2014-06-15_17-36-00_260595134347_rgbf000205-resize_0/001094_2014-06-15_17-36-00_260595134347_rgbf000205-resize_0-target.png,750,4.2175,1.128358208955224,2115,750,meters,1036210,1351972,35.0
693,846649,DepthScenes,duration_manipulation,aj,http://54.165.233.113/DepthDuration/depth_duration_Mturk/DepthDuration_HTML.html#39,39,1366,768,1366,768,2-19-2021,10-11-2,118,depth_duration_stimuli/002805_2014-06-22_19-54-03_094959634447_rgbf000079-resize_1/002805_2014-06-22_19-54-03_094959634447_rgbf000079-resize_1-target.png,750,3.1439999999999997,1.128358208955224,4602,750,meters,1036210,1351972,35.0
695,846649,DepthScenes,duration_manipulation,aj,http://54.165.233.113/DepthDuration/depth_duration_Mturk/DepthDuration_HTML.html#39,39,1366,768,1366,768,2-19-2021,10-11-2,120,depth_duration_stimuli/002579_2014-06-24_14-08-03_094959634447_rgbf000061-resize_2/002579_2014-06-24_14-08-03_094959634447_rgbf000061-resize_2-target.png,750,2.223125,1.128358208955224,2619,750,meters,1036210,1351972,35.0
699,846649,DepthScenes,duration_manipulation,aj,http://54.165.233.113/DepthDuration/depth_duration_Mturk/DepthDuration_HTML.html#39,39,1366,768,1366,768,2-19-2021,10-11-2,124,depth_duration_stimuli/000469_2014-06-09_19-42-10_260595134347_rgbf000081-resize_1/000469_2014-06-09_19-42-10_260595134347_rgbf000081-resize_1-target.png,750,1.652,0.564179104477612,2578,750,meters,1036210,1351972,35.0
704,846649,DepthScenes,duration_manipulation,aj,http://54.165.233.113/DepthDuration/depth_duration_Mturk/DepthDuration_HTML.html#39,39,1366,768,1366,768,2-19-2021,10-11-2,129,depth_duration_stimuli/000436_2014-06-09_22-25-11_260595134347_rgbf000137-resize_1/000436_2014-06-09_22-25-11_260595134347_rgbf000137-resize_1-target.png,750,4.0705,1.6925373134328359,2017,748,meters,1036210,1351972,35.0
708,846649,DepthScenes,duration_manipulation,aj,http://54.165.233.113/DepthDuration/depth_duration_Mturk/DepthDuration_HTML.html#39,39,1366,768,1366,768,2-19-2021,10-11-2,133,depth_duration_stimuli/001158_2014-06-17_15-32-16_260595134347_rgbf000138-resize_2/001158_2014-06-17_15-32-16_260595134347_rgbf000138-resize_2-target.png,750,4.5315,1.3164179104477614,2377,750,meters,1036210,1351972,35.0
720,846649,DepthScenes,duration_manipulation,aj,http://54.165.233.113/DepthDuration/depth_duration_Mturk/DepthDuration_HTML.html#39,39,1366,768,1366,768,2-19-2021,10-11-2,145,depth_duration_stimuli/000486_2014-06-09_20-47-20_260595134347_rgbf000143-resize_2/000486_2014-06-09_20-47-20_260595134347_rgbf000143-resize_2-target.png,750,4.8325,1.128358208955224,1906,750,meters,1036210,1351972,35.0
728,846649,DepthScenes,duration_manipulation,aj,http://54.165.233.113/DepthDuration/depth_duration_Mturk/DepthDuration_HTML.html#39,39,1366,768,1366,768,2-19-2021,10-11-2,153,depth_duration_stimuli/002468_2014-06-28_20-38-39_260595134347_rgbf000045-resize_1/002468_2014-06-28_20-38-39_260595134347_rgbf000045-resize_1-target.png,750,1.956,0.7522388059701492,2121,750,meters,1036210,1351972,35.0
733,846649,DepthScenes,duration_manipulation,aj,http://54.165.233.113/DepthDuration/depth_duration_Mturk/DepthDuration_HTML.html#39,39,1366,768,1366,768,2-19-2021,10-11-2,158,depth_duration_stimuli/002445_2014-06-28_20-32-16_260595134347_rgbf000029-resize_4/002445_2014-06-28_20-32-16_260595134347_rgbf000029-resize_4-target.png,750,2.5315,0.3761194029850746,1994,750,meters,1036210,1351972,35.0
734,846649,DepthScenes,duration_manipulation,aj,http://54.165.233.113/DepthDuration/depth_duration_Mturk/DepthDuration_HTML.html#39,39,1366,768,1366,768,2-19-2021,10-11-2,159,depth_duration_stimuli/002305_2014-06-28_19-56-50_260595134347_rgbf000102-resize_7/002305_2014-06-28_19-56-50_260595134347_rgbf000102-resize_7-target.png,750,4.8725,1.128358208955224,5098,750,meters,1036210,1351972,35.0
735,846649,DepthScenes,duration_manipulation,aj,http://54.165.233.113/DepthDuration/depth_duration_Mturk/DepthDuration_HTML.html#39,39,1366,768,1366,768,2-19-2021,10-11-2,160,depth_duration_stimuli/002637_2014-06-24_14-51-13_094959634447_rgbf000066-resize_4/002637_2014-06-24_14-51-13_094959634447_rgbf000066-resize_4-target.png,750,1.9955,0.9402985074626866,2716,750,meters,1036210,1351972,35.0
736,846649,DepthScenes,duration_manipulation,aj,http://54.165.233.113/DepthDuration/depth_duration_Mturk/DepthDuration_HTML.html#39,39,1366,768,1366,768,2-19-2021,10-11-2,161,depth_duration_stimuli/000191_2014-05-12_17-07-38_260595134347_rgbf000199-resize_0/000191_2014-05-12_17-07-38_260595134347_rgbf000199-resize_0-target.png,750,3.7995,1.6925373134328359,2393,750,meters,1036210,1351972,35.0
737,846649,DepthScenes,duration_manipulation,aj,http://54.165.233.113/DepthDuration/depth_duration_Mturk/DepthDuration_HTML.html#39,39,1366,768,1366,768,2-19-2021,10-11-2,162,depth_duration_stimuli/001244_2014-06-17_16-47-45_260595134347_rgbf000030-resize_4/001244_2014-06-17_16-47-45_260595134347_rgbf000030-resize_4-target.png,750,2.0425,0.9402985074626866,3994,750,meters,1036210,1351972,35.0
740,846649,DepthScenes,duration_manipulation,aj,http://54.165.233.113/DepthDuration/depth_duration_Mturk/DepthDuration_HTML.html#39,39,1366,768,1366,768,2-19-2021,10-11-2,165,depth_duration_stimuli/000506_2014-06-08_23-21-00_260595134347_rgbf000070-resize_7/000506_2014-06-08_23-21-00_260595134347_rgbf000070-resize_7-target.png,750,4.0585,1.128358208955224,3458,750,meters,1036210,1351972,35.0
741,846649,DepthScenes,duration_manipulation,aj,http://54.165.233.113/DepthDuration/depth_duration_Mturk/DepthDuration_HTML.html#39,39,1366,768,1366,768,2-19-2021,10-11-2,166,depth_duration_stimuli/000749_2014-06-08_21-55-06_260595134347_rgbf000070-resize_2/000749_2014-06-08_21-55-06_260595134347_rgbf000070-resize_2-target.png,750,2.331,0.7522388059701492,3986,750,meters,1036210,1351972,35.0
751,846649,DepthScenes,duration_manipulation,aj,http://54.165.233.113/DepthDuration/depth_duration_Mturk/DepthDuration_HTML.html#39,39,1366,768,1366,768,2-19-2021,10-11-2,176,depth_duration_stimuli/002790_2014-06-22_19-36-35_094959634447_rgbf000074-resize_4/002790_2014-06-22_19-36-35_094959634447_rgbf000074-resize_4-target.png,750,3.512,0.7522388059701492,3147,750,meters,1036210,1351972,35.0
754,846649,DepthScenes,duration_manipulation,aj,http://54.165.233.113/DepthDuration/depth_duration_Mturk/DepthDuration_HTML.html#39,39,1366,768,1366,768,2-19-2021,10-11-2,179,depth_duration_stimuli/001618_2014-06-20_11-37-31_260595134347_rgbf000027-resize_3/001618_2014-06-20_11-37-31_260595134347_rgbf000027-resize_3-target.png,750,1.8725,0.7522388059701492,2028,752,meters,1036210,1351972,35.0
766,846649,DepthScenes,duration_manipulation,aj,http://54.165.233.113/DepthDuration/depth_duration_Mturk/DepthDuration_HTML.html#39,39,1366,768,1366,768,2-19-2021,10-11-2,191,depth_duration_stimuli/002630_2014-06-24_14-47-50_094959634447_rgbf000055-resize_1/002630_2014-06-24_14-47-50_094959634447_rgbf000055-resize_1-target.png,750,3.0095,1.8805970149253732,4514,750,meters,1036210,1351972,35.0
773,319259,DepthScenes,duration_manipulation,ak,http://54.165.233.113/DepthDuration/depth_duration_Mturk/DepthDuration_HTML.html#43,43,1920,1007,1920,1080,2-19-2021,10-11-5,6,depth_duration_stimuli/000409_2014-06-04_19-23-33_260595134347_rgbf000067-resize_0/000409_2014-06-04_19-23-33_260595134347_rgbf000067-resize_0-target.png,750,3.7335,0.769230769230769,2532,749,feet,654257,693304,30.0
779,319259,DepthScenes,duration_manipulation,ak,http://54.165.233.113/DepthDuration/depth_duration_Mturk/DepthDuration_HTML.html#43,43,1920,1007,1920,1080,2-19-2021,10-11-5,12,depth_duration_stimuli/001056_2014-06-08_18-46-44_260595134347_rgbf000068-resize_0/001056_2014-06-08_18-46-44_260595134347_rgbf000068-resize_0-target.png,750,2.6625,0.9230769230769229,2548,750,feet,654257,693304,30.0
784,319259,DepthScenes,duration_manipulation,ak,http://54.165.233.113/DepthDuration/depth_duration_Mturk/DepthDuration_HTML.html#43,43,1920,1007,1920,1080,2-19-2021,10-11-5,17,depth_duration_stimuli/000493_2014-06-09_21-01-18_260595134347_rgbf000196-resize_3/000493_2014-06-09_21-01-18_260595134347_rgbf000196-resize_3-target.png,750,3.44,3.076923076923076,3081,750,feet,654257,693304,30.0
787,319259,DepthScenes,duration_manipulation,ak,http://54.165.233.113/DepthDuration/depth_duration_Mturk/DepthDuration_HTML.html#43,43,1920,1007,1920,1080,2-19-2021,10-11-5,20,depth_duration_stimuli/002630_2014-06-24_14-47-50_094959634447_rgbf000055-resize_1/002630_2014-06-24_14-47-50_094959634447_rgbf000055-resize_1-target.png,750,3.0095,3.076923076923076,2567,750,feet,654257,693304,30.0
790,319259,DepthScenes,duration_manipulation,ak,http://54.165.233.113/DepthDuration/depth_duration_Mturk/DepthDuration_HTML.html#43,43,1920,1007,1920,1080,2-19-2021,10-11-5,23,depth_duration_stimuli/002131_2014-06-25_21-12-01_260595134347_rgbf000083-resize_0/002131_2014-06-25_21-12-01_260595134347_rgbf000083-resize_0-target.png,750,1.7685,0.6153846153846153,2395,749,feet,654257,693304,30.0
791,319259,DepthScenes,duration_manipulation,ak,http://54.165.233.113/DepthDuration/depth_duration_Mturk/DepthDuration_HTML.html#43,43,1920,1007,1920,1080,2-19-2021,10-11-5,24,depth_duration_stimuli/001133_2014-06-17_14-49-16_260595134347_rgbf000100-resize_0/001133_2014-06-17_14-49-16_260595134347_rgbf000100-resize_0-target.png,750,4.2115,0.9230769230769229,2435,750,feet,654257,693304,30.0
797,319259,DepthScenes,duration_manipulation,ak,http://54.165.233.113/DepthDuration/depth_duration_Mturk/DepthDuration_HTML.html#43,43,1920,1007,1920,1080,2-19-2021,10-11-5,30,depth_duration_stimuli/000549_2014-06-08_22-10-24_260595134347_rgbf000247-resize_3/000549_2014-06-08_22-10-24_260595134347_rgbf000247-resize_3-target.png,750,1.841,0.30769230769230765,2490,750,feet,654257,693304,30.0
798,319259,DepthScenes,duration_manipulation,ak,http://54.165.233.113/DepthDuration/depth_duration_Mturk/DepthDuration_HTML.html#43,43,1920,1007,1920,1080,2-19-2021,10-11-5,31,depth_duration_stimuli/002445_2014-06-28_20-32-16_260595134347_rgbf000029-resize_4/002445_2014-06-28_20-32-16_260595134347_rgbf000029-resize_4-target.png,750,2.5315,0.46153846153846145,2380,750,feet,654257,693304,30.0
801,319259,DepthScenes,duration_manipulation,ak,http://54.165.233.113/DepthDuration/depth_duration_Mturk/DepthDuration_HTML.html#43,43,1920,1007,1920,1080,2-19-2021,10-11-5,34,depth_duration_stimuli/002678_2014-06-13_16-15-32_094959634447_rgbf000151-resize_6/002678_2014-06-13_16-15-32_094959634447_rgbf000151-resize_6-target.png,750,2.1830000000000003,0.769230769230769,2458,750,feet,654257,693304,30.0
802,319259,DepthScenes,duration_manipulation,ak,http://54.165.233.113/DepthDuration/depth_duration_Mturk/DepthDuration_HTML.html#43,43,1920,1007,1920,1080,2-19-2021,10-11-5,35,depth_duration_stimuli/001450_2014-06-19_17-02-03_260595134347_rgbf000203-resize_4/001450_2014-06-19_17-02-03_260595134347_rgbf000203-resize_4-target.png,750,4.0106666666667,1.538461538461538,2506,750,feet,654257,693304,30.0
809,319259,DepthScenes,duration_manipulation,ak,http://54.165.233.113/DepthDuration/depth_duration_Mturk/DepthDuration_HTML.html#43,43,1920,1007,1920,1080,2-19-2021,10-11-5,42,depth_duration_stimuli/001150_2014-06-17_15-27-34_260595134347_rgbf000108-resize_2/001150_2014-06-17_15-27-34_260595134347_rgbf000108-resize_2-target.png,750,4.0325,1.538461538461538,2634,751,feet,654257,693304,30.0
815,319259,DepthScenes,duration_manipulation,ak,http://54.165.233.113/DepthDuration/depth_duration_Mturk/DepthDuration_HTML.html#43,43,1920,1007,1920,1080,2-19-2021,10-11-5,48,depth_duration_stimuli/000483_2014-06-09_20-41-45_260595134347_rgbf000116-resize_4/000483_2014-06-09_20-41-45_260595134347_rgbf000116-resize_4-target.png,750,1.337,0.30769230769230765,2363,750,feet,654257,693304,30.0
817,319259,DepthScenes,duration_manipulation,ak,http://54.165.233.113/DepthDuration/depth_duration_Mturk/DepthDuration_HTML.html#43,43,1920,1007,1920,1080,2-19-2021,10-11-5,50,depth_duration_stimuli/002467_2014-06-28_20-38-07_260595134347_rgbf000026-resize_2/002467_2014-06-28_20-38-07_260595134347_rgbf000026-resize_2-target.png,750,4.742,2.307692307692307,2538,749,feet,654257,693304,30.0
821,319259,DepthScenes,duration_manipulation,ak,http://54.165.233.113/DepthDuration/depth_duration_Mturk/DepthDuration_HTML.html#43,43,1920,1007,1920,1080,2-19-2021,10-11-5,54,depth_duration_stimuli/000734_2014-06-08_17-39-11_260595134347_rgbf000128-resize_2/000734_2014-06-08_17-39-11_260595134347_rgbf000128-resize_2-target.png,750,4.098,0.769230769230769,2515,750,feet,654257,693304,30.0
823,319259,DepthScenes,duration_manipulation,ak,http://54.165.233.113/DepthDuration/depth_duration_Mturk/DepthDuration_HTML.html#43,43,1920,1007,1920,1080,2-19-2021,10-11-5,56,depth_duration_stimuli/003495_2014-05-21_16-01-51_094959634447_rgbf000100-resize_3/003495_2014-05-21_16-01-51_094959634447_rgbf000100-resize_3-target.png,750,1.6255,0.30769230769230765,2290,750,feet,654257,693304,30.0
831,319259,DepthScenes,duration_manipulation,ak,http://54.165.233.113/DepthDuration/depth_duration_Mturk/DepthDuration_HTML.html#43,43,1920,1007,1920,1080,2-19-2021,10-11-5,64,depth_duration_stimuli/003228_2014-05-14_13-42-35_094959634447_rgbf000101-resize_1/003228_2014-05-14_13-42-35_094959634447_rgbf000101-resize_1-target.png,750,1.9680000000000002,0.30769230769230765,2443,750,feet,654257,693304,30.0
832,319259,DepthScenes,duration_manipulation,ak,http://54.165.233.113/DepthDuration/depth_duration_Mturk/DepthDuration_HTML.html#43,43,1920,1007,1920,1080,2-19-2021,10-11-5,65,depth_duration_stimuli/001289_2014-06-16_16-25-52_260595134347_rgbf000067-resize_1/001289_2014-06-16_16-25-52_260595134347_rgbf000067-resize_1-target.png,750,1.8835,0.30769230769230765,2417,750,feet,654257,693304,30.0
837,319259,DepthScenes,duration_manipulation,ak,http://54.165.233.113/DepthDuration/depth_duration_Mturk/DepthDuration_HTML.html#43,43,1920,1007,1920,1080,2-19-2021,10-11-5,70,depth_duration_stimuli/000788_2014-06-08_22-34-36_260595134347_rgbf000131-resize_1/000788_2014-06-08_22-34-36_260595134347_rgbf000131-resize_1-target.png,750,3.359,0.769230769230769,2748,750,feet,654257,693304,30.0
839,319259,DepthScenes,duration_manipulation,ak,http://54.165.233.113/DepthDuration/depth_duration_Mturk/DepthDuration_HTML.html#43,43,1920,1007,1920,1080,2-19-2021,10-11-5,72,depth_duration_stimuli/002153_2014-06-25_21-27-18_260595134347_rgbf000038-resize_5/002153_2014-06-25_21-27-18_260595134347_rgbf000038-resize_5-target.png,750,2.505,0.6153846153846153,2347,749,feet,654257,693304,30.0
840,319259,DepthScenes,duration_manipulation,ak,http://54.165.233.113/DepthDuration/depth_duration_Mturk/DepthDuration_HTML.html#43,43,1920,1007,1920,1080,2-19-2021,10-11-5,73,depth_duration_stimuli/000457_2014-06-08_16-52-43_260595134347_rgbf000199-resize_1/000457_2014-06-08_16-52-43_260595134347_rgbf000199-resize_1-target.png,750,3.6489999999999996,1.2307692307692306,2449,750,feet,654257,693304,30.0
841,319259,DepthScenes,duration_manipulation,ak,http://54.165.233.113/DepthDuration/depth_duration_Mturk/DepthDuration_HTML.html#43,43,1920,1007,1920,1080,2-19-2021,10-11-5,74,depth_duration_stimuli/001188_2014-06-17_15-54-10_260595134347_rgbf000090-resize_2/001188_2014-06-17_15-54-10_260595134347_rgbf000090-resize_2-target.png,750,2.7439999999999998,0.9230769230769229,2914,750,feet,654257,693304,30.0
851,319259,DepthScenes,duration_manipulation,ak,http://54.165.233.113/DepthDuration/depth_duration_Mturk/DepthDuration_HTML.html#43,43,1920,1007,1920,1080,2-19-2021,10-11-5,84,depth_duration_stimuli/000665_2014-06-09_20-42-35_260595134347_rgbf000110-resize_1/000665_2014-06-09_20-42-35_260595134347_rgbf000110-resize_1-target.png,750,3.057,1.538461538461538,2992,749,feet,654257,693304,30.0
854,319259,DepthScenes,duration_manipulation,ak,http://54.165.233.113/DepthDuration/depth_duration_Mturk/DepthDuration_HTML.html#43,43,1920,1007,1920,1080,2-19-2021,10-11-5,87,depth_duration_stimuli/000556_2014-06-09_22-42-56_260595134347_rgbf000214-resize_1/000556_2014-06-09_22-42-56_260595134347_rgbf000214-resize_1-target.png,750,4.8415,0.9230769230769229,8867,750,feet,654257,693304,30.0
856,319259,DepthScenes,duration_manipulation,ak,http://54.165.233.113/DepthDuration/depth_duration_Mturk/DepthDuration_HTML.html#43,43,1920,1007,1920,1080,2-19-2021,10-11-5,89,depth_duration_stimuli/002209_2014-06-28_18-36-10_260595134347_rgbf000051-resize_1/002209_2014-06-28_18-36-10_260595134347_rgbf000051-resize_1-target.png,750,2.057,0.769230769230769,2409,750,feet,654257,693304,30.0
864,319259,DepthScenes,duration_manipulation,ak,http://54.165.233.113/DepthDuration/depth_duration_Mturk/DepthDuration_HTML.html#43,43,1920,1007,1920,1080,2-19-2021,10-11-5,97,depth_duration_stimuli/000749_2014-06-08_21-55-06_260595134347_rgbf000070-resize_2/000749_2014-06-08_21-55-06_260595134347_rgbf000070-resize_2-target.png,750,2.331,0.6153846153846153,2420,751,feet,654257,693304,30.0
866,319259,DepthScenes,duration_manipulation,ak,http://54.165.233.113/DepthDuration/depth_duration_Mturk/DepthDuration_HTML.html#43,43,1920,1007,1920,1080,2-19-2021,10-11-5,99,depth_duration_stimuli/001724_2014-06-26_19-28-50_260595134347_rgbf000037-resize_7/001724_2014-06-26_19-28-50_260595134347_rgbf000037-resize_7-target.png,750,3.827,1.2307692307692306,3570,750,feet,654257,693304,30.0
872,319259,DepthScenes,duration_manipulation,ak,http://54.165.233.113/DepthDuration/depth_duration_Mturk/DepthDuration_HTML.html#43,43,1920,1007,1920,1080,2-19-2021,10-11-5,105,depth_duration_stimuli/000691_2014-06-08_13-08-50_260595134347_rgbf000132-resize_3/000691_2014-06-08_13-08-50_260595134347_rgbf000132-resize_3-target.png,750,4.1530000000000005,1.2307692307692306,2457,751,feet,654257,693304,30.0
884,319259,DepthScenes,duration_manipulation,ak,http://54.165.233.113/DepthDuration/depth_duration_Mturk/DepthDuration_HTML.html#43,43,1920,1007,1920,1080,2-19-2021,10-11-5,117,depth_duration_stimuli/000943_2014-06-09_19-31-07_260595134347_rgbf000128-resize_1/000943_2014-06-09_19-31-07_260595134347_rgbf000128-resize_1-target.png,750,1.9765,0.769230769230769,2505,750,feet,654257,693304,30.0
885,319259,DepthScenes,duration_manipulation,ak,http://54.165.233.113/DepthDuration/depth_duration_Mturk/DepthDuration_HTML.html#43,43,1920,1007,1920,1080,2-19-2021,10-11-5,118,depth_duration_stimuli/000137_2014-05-20_17-04-49_260595134347_rgbf000120-resize_1/000137_2014-05-20_17-04-49_260595134347_rgbf000120-resize_1-target.png,750,3.786,1.2307692307692306,2507,750,feet,654257,693304,30.0
886,319259,DepthScenes,duration_manipulation,ak,http://54.165.233.113/DepthDuration/depth_duration_Mturk/DepthDuration_HTML.html#43,43,1920,1007,1920,1080,2-19-2021,10-11-5,119,depth_duration_stimuli/000869_2014-06-09_20-50-18_260595134347_rgbf000060-resize_3/000869_2014-06-09_20-50-18_260595134347_rgbf000060-resize_3-target.png,750,2.266,0.6153846153846153,2354,751,feet,654257,693304,30.0
891,319259,DepthScenes,duration_manipulation,ak,http://54.165.233.113/DepthDuration/depth_duration_Mturk/DepthDuration_HTML.html#43,43,1920,1007,1920,1080,2-19-2021,10-11-5,124,depth_duration_stimuli/001532_2014-06-20_16-50-41_260595134347_rgbf000081-resize_4/001532_2014-06-20_16-50-41_260595134347_rgbf000081-resize_4-target.png,750,1.5758333333333001,0.6153846153846153,2483,750,feet,654257,693304,30.0
892,319259,DepthScenes,duration_manipulation,ak,http://54.165.233.113/DepthDuration/depth_duration_Mturk/DepthDuration_HTML.html#43,43,1920,1007,1920,1080,2-19-2021,10-11-5,125,depth_duration_stimuli/000773_2014-06-08_22-24-54_260595134347_rgbf000093-resize_1/000773_2014-06-08_22-24-54_260595134347_rgbf000093-resize_1-target.png,750,4.973,0.769230769230769,2355,750,feet,654257,693304,30.0
895,319259,DepthScenes,duration_manipulation,ak,http://54.165.233.113/DepthDuration/depth_duration_Mturk/DepthDuration_HTML.html#43,43,1920,1007,1920,1080,2-19-2021,10-11-5,128,depth_duration_stimuli/001175_2014-06-17_15-45-55_260595134347_rgbf000129-resize_4/001175_2014-06-17_15-45-55_260595134347_rgbf000129-resize_4-target.png,750,4.255,1.8461538461538458,2442,750,feet,654257,693304,30.0
902,319259,DepthScenes,duration_manipulation,ak,http://54.165.233.113/DepthDuration/depth_duration_Mturk/DepthDuration_HTML.html#43,43,1920,1007,1920,1080,2-19-2021,10-11-5,135,depth_duration_stimuli/001199_2014-06-17_16-03-48_260595134347_rgbf000077-resize_0/001199_2014-06-17_16-03-48_260595134347_rgbf000077-resize_0-target.png,750,3.4375,3.076923076923076,3267,750,feet,654257,693304,30.0
904,319259,DepthScenes,duration_manipulation,ak,http://54.165.233.113/DepthDuration/depth_duration_Mturk/DepthDuration_HTML.html#43,43,1920,1007,1920,1080,2-19-2021,10-11-5,137,depth_duration_stimuli/002043_2014-06-24_20-29-38_260595134347_rgbf000039-resize_4/002043_2014-06-24_20-29-38_260595134347_rgbf000039-resize_4-target.png,750,2.8435,0.769230769230769,2937,750,feet,654257,693304,30.0
907,319259,DepthScenes,duration_manipulation,ak,http://54.165.233.113/DepthDuration/depth_duration_Mturk/DepthDuration_HTML.html#43,43,1920,1007,1920,1080,2-19-2021,10-11-5,140,depth_duration_stimuli/001110_2014-06-15_17-25-28_260595134347_rgbf000150-resize_1/001110_2014-06-15_17-25-28_260595134347_rgbf000150-resize_1-target.png,750,1.7115,0.6153846153846153,2474,750,feet,654257,693304,30.0
914,319259,DepthScenes,duration_manipulation,ak,http://54.165.233.113/DepthDuration/depth_duration_Mturk/DepthDuration_HTML.html#43,43,1920,1007,1920,1080,2-19-2021,10-11-5,147,depth_duration_stimuli/002103_2014-06-25_20-00-40_260595134347_rgbf000049-resize_0/002103_2014-06-25_20-00-40_260595134347_rgbf000049-resize_0-target.png,750,4.105,1.538461538461538,2396,751,feet,654257,693304,30.0
925,319259,DepthScenes,duration_manipulation,ak,http://54.165.233.113/DepthDuration/depth_duration_Mturk/DepthDuration_HTML.html#43,43,1920,1007,1920,1080,2-19-2021,10-11-5,158,depth_duration_stimuli/000927_2014-06-09_16-32-30_260595134347_rgbf000123-resize_3/000927_2014-06-09_16-32-30_260595134347_rgbf000123-resize_3-target.png,750,2.6785,0.9230769230769229,2329,750,feet,654257,693304,30.0
927,319259,DepthScenes,duration_manipulation,ak,http://54.165.233.113/DepthDuration/depth_duration_Mturk/DepthDuration_HTML.html#43,43,1920,1007,1920,1080,2-19-2021,10-11-5,160,depth_duration_stimuli/002444_2014-06-28_20-32-08_260595134347_rgbf000027-resize_0/002444_2014-06-28_20-32-08_260595134347_rgbf000027-resize_0-target.png,750,4.388999999999999,0.9230769230769229,2322,749,feet,654257,693304,30.0
936,319259,DepthScenes,duration_manipulation,ak,http://54.165.233.113/DepthDuration/depth_duration_Mturk/DepthDuration_HTML.html#43,43,1920,1007,1920,1080,2-19-2021,10-11-5,169,depth_duration_stimuli/003587_2014-05-23_16-48-02_094959634447_rgbf002384-resize_2/003587_2014-05-23_16-48-02_094959634447_rgbf002384-resize_2-target.png,750,1.357,0.30769230769230765,2827,751,feet,654257,693304,30.0
937,319259,DepthScenes,duration_manipulation,ak,http://54.165.233.113/DepthDuration/depth_duration_Mturk/DepthDuration_HTML.html#43,43,1920,1007,1920,1080,2-19-2021,10-11-5,170,depth_duration_stimuli/002425_2014-06-28_20-27-29_260595134347_rgbf000031-resize_8/002425_2014-06-28_20-27-29_260595134347_rgbf000031-resize_8-target.png,750,3.8960000000000004,1.538461538461538,2627,750,feet,654257,693304,30.0
939,319259,DepthScenes,duration_manipulation,ak,http://54.165.233.113/DepthDuration/depth_duration_Mturk/DepthDuration_HTML.html#43,43,1920,1007,1920,1080,2-19-2021,10-11-5,172,depth_duration_stimuli/002057_2014-06-24_21-00-13_260595134347_rgbf000120-resize_1/002057_2014-06-24_21-00-13_260595134347_rgbf000120-resize_1-target.png,750,2.967,1.2307692307692306,2571,751,feet,654257,693304,30.0
940,319259,DepthScenes,duration_manipulation,ak,http://54.165.233.113/DepthDuration/depth_duration_Mturk/DepthDuration_HTML.html#43,43,1920,1007,1920,1080,2-19-2021,10-11-5,173,depth_duration_stimuli/000502_2014-06-08_23-02-32_260595134347_rgbf000063-resize_4/000502_2014-06-08_23-02-32_260595134347_rgbf000063-resize_4-target.png,750,2.431,0.9230769230769229,2337,750,feet,654257,693304,30.0
944,319259,DepthScenes,duration_manipulation,ak,http://54.165.233.113/DepthDuration/depth_duration_Mturk/DepthDuration_HTML.html#43,43,1920,1007,1920,1080,2-19-2021,10-11-5,177,depth_duration_stimuli/001016_2014-06-09_16-16-10_260595134347_rgbf000112-resize_5/001016_2014-06-09_16-16-10_260595134347_rgbf000112-resize_5-target.png,750,1.6565,0.769230769230769,2546,749,feet,654257,693304,30.0
951,319259,DepthScenes,duration_manipulation,ak,http://54.165.233.113/DepthDuration/depth_duration_Mturk/DepthDuration_HTML.html#43,43,1920,1007,1920,1080,2-19-2021,10-11-5,184,depth_duration_stimuli/002805_2014-06-22_19-54-03_094959634447_rgbf000079-resize_1/002805_2014-06-22_19-54-03_094959634447_rgbf000079-resize_1-target.png,750,3.1439999999999997,1.538461538461538,2498,750,feet,654257,693304,30.0
952,319259,DepthScenes,duration_manipulation,ak,http://54.165.233.113/DepthDuration/depth_duration_Mturk/DepthDuration_HTML.html#43,43,1920,1007,1920,1080,2-19-2021,10-11-5,185,depth_duration_stimuli/002545_2014-06-24_13-38-53_094959634447_rgbf000080-resize_4/002545_2014-06-24_13-38-53_094959634447_rgbf000080-resize_4-target.png,750,1.9205,1.538461538461538,2436,751,feet,654257,693304,30.0
957,319259,DepthScenes,duration_manipulation,ak,http://54.165.233.113/DepthDuration/depth_duration_Mturk/DepthDuration_HTML.html#43,43,1920,1007,1920,1080,2-19-2021,10-11-5,190,depth_duration_stimuli/001417_2014-06-19_16-25-36_260595134347_rgbf000115-resize_5/001417_2014-06-19_16-25-36_260595134347_rgbf000115-resize_5-target.png,750,4.6255,0.769230769230769,3809,788,feet,654257,693304,30.0
959,319259,DepthScenes,duration_manipulation,ak,http://54.165.233.113/DepthDuration/depth_duration_Mturk/DepthDuration_HTML.html#43,43,1920,1007,1920,1080,2-19-2021,10-11-5,192,depth_duration_stimuli/001584_2014-06-20_11-07-43_260595134347_rgbf000002-resize_1/001584_2014-06-20_11-07-43_260595134347_rgbf000002-resize_1-target.png,750,3.53,1.2307692307692306,2921,750,feet,654257,693304,30.0
963,832052,DepthScenes,duration_manipulation,ac,http://54.165.233.113/DepthDuration/depth_duration_Mturk/DepthDuration_HTML.html#12,12,2560,937,2560,1080,2-19-2021,10-12-46,4,depth_duration_stimuli/002323_2014-06-28_20-01-54_260595134347_rgbf000051-resize_4/002323_2014-06-28_20-01-54_260595134347_rgbf000051-resize_4-target.png,750,3.7310000000000003,1.9164198749588677,5421,764,feet,1009566,1132583,60.0
964,832052,DepthScenes,duration_manipulation,ac,http://54.165.233.113/DepthDuration/depth_duration_Mturk/DepthDuration_HTML.html#12,12,2560,937,2560,1080,2-19-2021,10-12-46,5,depth_duration_stimuli/001617_2014-06-20_11-35-32_260595134347_rgbf000066-resize_1/001617_2014-06-20_11-35-32_260595134347_rgbf000066-resize_1-target.png,750,3.7910000000000004,1.1977624218492924,8664,762,feet,1009566,1132583,60.0
968,832052,DepthScenes,duration_manipulation,ac,http://54.165.233.113/DepthDuration/depth_duration_Mturk/DepthDuration_HTML.html#12,12,2560,937,2560,1080,2-19-2021,10-12-46,9,depth_duration_stimuli/003546_2014-05-22_15-48-53_094959634447_rgbf004816-resize_3/003546_2014-05-22_15-48-53_094959634447_rgbf004816-resize_3-target.png,750,2.62625,0.8384336952945046,4256,750,feet,1009566,1132583,60.0
969,832052,DepthScenes,duration_manipulation,ac,http://54.165.233.113/DepthDuration/depth_duration_Mturk/DepthDuration_HTML.html#12,12,2560,937,2560,1080,2-19-2021,10-12-46,10,depth_duration_stimuli/000753_2014-06-08_21-57-44_260595134347_rgbf000123-resize_3/000753_2014-06-08_21-57-44_260595134347_rgbf000123-resize_3-target.png,750,1.916,0.7785455742020401,4718,750,feet,1009566,1132583,60.0
974,832052,DepthScenes,duration_manipulation,ac,http://54.165.233.113/DepthDuration/depth_duration_Mturk/DepthDuration_HTML.html#12,12,2560,937,2560,1080,2-19-2021,10-12-46,15,depth_duration_stimuli/001175_2014-06-17_15-45-55_260595134347_rgbf000129-resize_4/001175_2014-06-17_15-45-55_260595134347_rgbf000129-resize_4-target.png,750,4.255,1.5570911484040801,7216,748,feet,1009566,1132583,60.0
981,832052,DepthScenes,duration_manipulation,ac,http://54.165.233.113/DepthDuration/depth_duration_Mturk/DepthDuration_HTML.html#12,12,2560,937,2560,1080,2-19-2021,10-12-46,22,depth_duration_stimuli/000929_2014-06-09_16-33-19_260595134347_rgbf000139-resize_0/000929_2014-06-09_16-33-19_260595134347_rgbf000139-resize_0-target.png,750,2.8680000000000003,0.9582099374794338,4195,745,feet,1009566,1132583,60.0
982,832052,DepthScenes,duration_manipulation,ac,http://54.165.233.113/DepthDuration/depth_duration_Mturk/DepthDuration_HTML.html#12,12,2560,937,2560,1080,2-19-2021,10-12-46,23,depth_duration_stimuli/003534_2014-05-22_15-06-10_094959634447_rgbf000102-resize_4/003534_2014-05-22_15-06-10_094959634447_rgbf000102-resize_4-target.png,750,1.426,0.5988812109246462,3727,760,feet,1009566,1132583,60.0
989,832052,DepthScenes,duration_manipulation,ac,http://54.165.233.113/DepthDuration/depth_duration_Mturk/DepthDuration_HTML.html#12,12,2560,937,2560,1080,2-19-2021,10-12-46,30,depth_duration_stimuli/001289_2014-06-16_16-25-52_260595134347_rgbf000067-resize_1/001289_2014-06-16_16-25-52_260595134347_rgbf000067-resize_1-target.png,750,1.8835,0.7186574531095754,4649,751,feet,1009566,1132583,60.0
993,832052,DepthScenes,duration_manipulation,ac,http://54.165.233.113/DepthDuration/depth_duration_Mturk/DepthDuration_HTML.html#12,12,2560,937,2560,1080,2-19-2021,10-12-46,34,depth_duration_stimuli/002660_2014-06-13_15-44-18_094959634447_rgbf001878-resize_2/002660_2014-06-13_15-44-18_094959634447_rgbf001878-resize_2-target.png,750,3.576,1.0779861796643633,4904,752,feet,1009566,1132583,60.0
1000,832052,DepthScenes,duration_manipulation,ac,http://54.165.233.113/DepthDuration/depth_duration_Mturk/DepthDuration_HTML.html#12,12,2560,937,2560,1080,2-19-2021,10-12-46,41,depth_duration_stimuli/000556_2014-06-09_22-42-56_260595134347_rgbf000214-resize_1/000556_2014-06-09_22-42-56_260595134347_rgbf000214-resize_1-target.png,750,4.8415,1.4373149062191508,9516,751,feet,1009566,1132583,60.0
1006,832052,DepthScenes,duration_manipulation,ac,http://54.165.233.113/DepthDuration/depth_duration_Mturk/DepthDuration_HTML.html#12,12,2560,937,2560,1080,2-19-2021,10-12-46,47,depth_duration_stimuli/002579_2014-06-24_14-08-03_094959634447_rgbf000061-resize_2/002579_2014-06-24_14-08-03_094959634447_rgbf000061-resize_2-target.png,750,2.223125,0.7186574531095754,3435,760,feet,1009566,1132583,60.0
1007,832052,DepthScenes,duration_manipulation,ac,http://54.165.233.113/DepthDuration/depth_duration_Mturk/DepthDuration_HTML.html#12,12,2560,937,2560,1080,2-19-2021,10-12-46,48,depth_duration_stimuli/001392_2014-06-19_16-07-59_260595134347_rgbf000046-resize_1/001392_2014-06-19_16-07-59_260595134347_rgbf000046-resize_1-target.png,750,4.135,1.5570911484040801,5366,762,feet,1009566,1132583,60.0
1012,832052,DepthScenes,duration_manipulation,ac,http://54.165.233.113/DepthDuration/depth_duration_Mturk/DepthDuration_HTML.html#12,12,2560,937,2560,1080,2-19-2021,10-12-46,53,depth_duration_stimuli/000506_2014-06-08_23-21-00_260595134347_rgbf000070-resize_7/000506_2014-06-08_23-21-00_260595134347_rgbf000070-resize_7-target.png,750,4.0585,1.5570911484040801,4323,759,feet,1009566,1132583,60.0
1014,832052,DepthScenes,duration_manipulation,ac,http://54.165.233.113/DepthDuration/depth_duration_Mturk/DepthDuration_HTML.html#12,12,2560,937,2560,1080,2-19-2021,10-12-46,55,depth_duration_stimuli/002750_2014-06-22_19-08-03_094959634447_rgbf000094-resize_4/002750_2014-06-22_19-08-03_094959634447_rgbf000094-resize_4-target.png,750,2.354,1.0779861796643633,4665,750,feet,1009566,1132583,60.0
1016,832052,DepthScenes,duration_manipulation,ac,http://54.165.233.113/DepthDuration/depth_duration_Mturk/DepthDuration_HTML.html#12,12,2560,937,2560,1080,2-19-2021,10-12-46,57,depth_duration_stimuli/000555_2014-06-09_22-42-23_260595134347_rgbf000037-resize_4/000555_2014-06-09_22-42-23_260595134347_rgbf000037-resize_4-target.png,750,1.9765,0.8384336952945046,4317,750,feet,1009566,1132583,60.0
1017,832052,DepthScenes,duration_manipulation,ac,http://54.165.233.113/DepthDuration/depth_duration_Mturk/DepthDuration_HTML.html#12,12,2560,937,2560,1080,2-19-2021,10-12-46,58,depth_duration_stimuli/000927_2014-06-09_16-32-30_260595134347_rgbf000123-resize_3/000927_2014-06-09_16-32-30_260595134347_rgbf000123-resize_3-target.png,750,2.6785,1.0779861796643633,4161,761,feet,1009566,1132583,60.0
1020,832052,DepthScenes,duration_manipulation,ac,http://54.165.233.113/DepthDuration/depth_duration_Mturk/DepthDuration_HTML.html#12,12,2560,937,2560,1080,2-19-2021,10-12-46,61,depth_duration_stimuli/000854_2014-06-09_19-43-13_260595134347_rgbf000066-resize_0/000854_2014-06-09_19-43-13_260595134347_rgbf000066-resize_0-target.png,750,3.068,0.6587693320171109,5095,754,feet,1009566,1132583,60.0
1026,832052,DepthScenes,duration_manipulation,ac,http://54.165.233.113/DepthDuration/depth_duration_Mturk/DepthDuration_HTML.html#12,12,2560,937,2560,1080,2-19-2021,10-12-46,67,depth_duration_stimuli/000758_2014-06-08_22-05-08_260595134347_rgbf000085-resize_0/000758_2014-06-08_22-05-08_260595134347_rgbf000085-resize_0-target.png,750,3.3810000000000002,1.4373149062191508,4951,764,feet,1009566,1132583,60.0
1027,832052,DepthScenes,duration_manipulation,ac,http://54.165.233.113/DepthDuration/depth_duration_Mturk/DepthDuration_HTML.html#12,12,2560,937,2560,1080,2-19-2021,10-12-46,68,depth_duration_stimuli/001056_2014-06-08_18-46-44_260595134347_rgbf000068-resize_0/001056_2014-06-08_18-46-44_260595134347_rgbf000068-resize_0-target.png,750,2.6625,1.1977624218492924,4051,751,feet,1009566,1132583,60.0
1036,832052,DepthScenes,duration_manipulation,ac,http://54.165.233.113/DepthDuration/depth_duration_Mturk/DepthDuration_HTML.html#12,12,2560,937,2560,1080,2-19-2021,10-12-46,77,depth_duration_stimuli/000549_2014-06-08_22-10-24_260595134347_rgbf000247-resize_3/000549_2014-06-08_22-10-24_260595134347_rgbf000247-resize_3-target.png,750,1.841,0.4791049687397169,4121,748,feet,1009566,1132583,60.0
1038,832052,DepthScenes,duration_manipulation,ac,http://54.165.233.113/DepthDuration/depth_duration_Mturk/DepthDuration_HTML.html#12,12,2560,937,2560,1080,2-19-2021,10-12-46,79,depth_duration_stimuli/002568_2014-06-24_13-59-21_094959634447_rgbf000062-resize_4/002568_2014-06-24_13-59-21_094959634447_rgbf000062-resize_4-target.png,750,3.015,0.9582099374794338,4393,755,feet,1009566,1132583,60.0
1044,832052,DepthScenes,duration_manipulation,ac,http://54.165.233.113/DepthDuration/depth_duration_Mturk/DepthDuration_HTML.html#12,12,2560,937,2560,1080,2-19-2021,10-12-46,85,depth_duration_stimuli/003338_2014-05-20_11-01-23_094959634447_rgbf000051-resize_6/003338_2014-05-20_11-01-23_094959634447_rgbf000051-resize_6-target.png,750,1.693,0.4791049687397169,3799,765,feet,1009566,1132583,60.0
1051,832052,DepthScenes,duration_manipulation,ac,http://54.165.233.113/DepthDuration/depth_duration_Mturk/DepthDuration_HTML.html#12,12,2560,937,2560,1080,2-19-2021,10-12-46,92,depth_duration_stimuli/002305_2014-06-28_19-56-50_260595134347_rgbf000102-resize_7/002305_2014-06-28_19-56-50_260595134347_rgbf000102-resize_7-target.png,750,4.8725,1.7966436327739386,4237,758,feet,1009566,1132583,60.0
1055,832052,DepthScenes,duration_manipulation,ac,http://54.165.233.113/DepthDuration/depth_duration_Mturk/DepthDuration_HTML.html#12,12,2560,937,2560,1080,2-19-2021,10-12-46,96,depth_duration_stimuli/000917_2014-06-09_22-45-29_260595134347_rgbf000149-resize_3/000917_2014-06-09_22-45-29_260595134347_rgbf000149-resize_3-target.png,750,4.1865,1.0180980585718986,6148,759,feet,1009566,1132583,60.0
1057,832052,DepthScenes,duration_manipulation,ac,http://54.165.233.113/DepthDuration/depth_duration_Mturk/DepthDuration_HTML.html#12,12,2560,937,2560,1080,2-19-2021,10-12-46,98,depth_duration_stimuli/001806_2014-06-26_20-50-20_260595134347_rgbf000091-resize_1/001806_2014-06-26_20-50-20_260595134347_rgbf000091-resize_1-target.png,750,2.7305,0.6587693320171109,4564,765,feet,1009566,1132583,60.0
1064,832052,DepthScenes,duration_manipulation,ac,http://54.165.233.113/DepthDuration/depth_duration_Mturk/DepthDuration_HTML.html#12,12,2560,937,2560,1080,2-19-2021,10-12-46,105,depth_duration_stimuli/000493_2014-06-09_21-01-18_260595134347_rgbf000196-resize_3/000493_2014-06-09_21-01-18_260595134347_rgbf000196-resize_3-target.png,750,3.44,1.0779861796643633,4285,762,feet,1009566,1132583,60.0
1075,832052,DepthScenes,duration_manipulation,ac,http://54.165.233.113/DepthDuration/depth_duration_Mturk/DepthDuration_HTML.html#12,12,2560,937,2560,1080,2-19-2021,10-12-46,116,depth_duration_stimuli/002995_2014-06-15_12-31-26_094959634447_rgbf000150-resize_1/002995_2014-06-15_12-31-26_094959634447_rgbf000150-resize_1-target.png,750,3.8360000000000003,1.6768673905890092,5786,759,feet,1009566,1132583,60.0
1076,832052,DepthScenes,duration_manipulation,ac,http://54.165.233.113/DepthDuration/depth_duration_Mturk/DepthDuration_HTML.html#12,12,2560,937,2560,1080,2-19-2021,10-12-46,117,depth_duration_stimuli/002509_2014-06-24_13-19-22_094959634447_rgbf000077-resize_0/002509_2014-06-24_13-19-22_094959634447_rgbf000077-resize_0-target.png,750,1.3065,0.4791049687397169,3882,749,feet,1009566,1132583,60.0
1083,832052,DepthScenes,duration_manipulation,ac,http://54.165.233.113/DepthDuration/depth_duration_Mturk/DepthDuration_HTML.html#12,12,2560,937,2560,1080,2-19-2021,10-12-46,124,depth_duration_stimuli/001016_2014-06-09_16-16-10_260595134347_rgbf000112-resize_5/001016_2014-06-09_16-16-10_260595134347_rgbf000112-resize_5-target.png,750,1.6565,0.7186574531095754,3432,750,feet,1009566,1132583,60.0
1086,832052,DepthScenes,duration_manipulation,ac,http://54.165.233.113/DepthDuration/depth_duration_Mturk/DepthDuration_HTML.html#12,12,2560,937,2560,1080,2-19-2021,10-12-46,127,depth_duration_stimuli/002444_2014-06-28_20-32-08_260595134347_rgbf000027-resize_0/002444_2014-06-28_20-32-08_260595134347_rgbf000027-resize_0-target.png,750,4.388999999999999,1.3175386640342217,3789,752,feet,1009566,1132583,60.0
1089,832052,DepthScenes,duration_manipulation,ac,http://54.165.233.113/DepthDuration/depth_duration_Mturk/DepthDuration_HTML.html#12,12,2560,937,2560,1080,2-19-2021,10-12-46,130,depth_duration_stimuli/003048_2014-06-15_13-49-43_094959634447_rgbf000150-resize_1/003048_2014-06-15_13-49-43_094959634447_rgbf000150-resize_1-target.png,750,4.0035,1.1977624218492924,4150,753,feet,1009566,1132583,60.0
1093,832052,DepthScenes,duration_manipulation,ac,http://54.165.233.113/DepthDuration/depth_duration_Mturk/DepthDuration_HTML.html#12,12,2560,937,2560,1080,2-19-2021,10-12-46,134,depth_duration_stimuli/002279_2014-06-28_18-55-32_260595134347_rgbf000040-resize_5/002279_2014-06-28_18-55-32_260595134347_rgbf000040-resize_5-target.png,750,1.5043333333333,0.3593287265547877,3883,755,feet,1009566,1132583,60.0
1094,832052,DepthScenes,duration_manipulation,ac,http://54.165.233.113/DepthDuration/depth_duration_Mturk/DepthDuration_HTML.html#12,12,2560,937,2560,1080,2-19-2021,10-12-46,135,depth_duration_stimuli/001133_2014-06-17_14-49-16_260595134347_rgbf000100-resize_0/001133_2014-06-17_14-49-16_260595134347_rgbf000100-resize_0-target.png,750,4.2115,1.4373149062191508,3869,736,feet,1009566,1132583,60.0
1096,832052,DepthScenes,duration_manipulation,ac,http://54.165.233.113/DepthDuration/depth_duration_Mturk/DepthDuration_HTML.html#12,12,2560,937,2560,1080,2-19-2021,10-12-46,137,depth_duration_stimuli/003423_2014-05-21_10-23-26_094959634447_rgbf002665-resize_2/003423_2014-05-21_10-23-26_094959634447_rgbf002665-resize_2-target.png,750,3.2575,1.5570911484040801,4955,750,feet,1009566,1132583,60.0
1101,832052,DepthScenes,duration_manipulation,ac,http://54.165.233.113/DepthDuration/depth_duration_Mturk/DepthDuration_HTML.html#12,12,2560,937,2560,1080,2-19-2021,10-12-46,142,depth_duration_stimuli/002340_2014-06-28_20-05-46_260595134347_rgbf000113-resize_0/002340_2014-06-28_20-05-46_260595134347_rgbf000113-resize_0-target.png,750,2.4735,1.0779861796643633,3703,750,feet,1009566,1132583,60.0
1102,832052,DepthScenes,duration_manipulation,ac,http://54.165.233.113/DepthDuration/depth_duration_Mturk/DepthDuration_HTML.html#12,12,2560,937,2560,1080,2-19-2021,10-12-46,143,depth_duration_stimuli/000522_2014-06-08_13-35-06_260595134347_rgbf000244-resize_1/000522_2014-06-08_13-35-06_260595134347_rgbf000244-resize_1-target.png,750,2.3715,0.4192168476472523,5297,758,feet,1009566,1132583,60.0
1112,832052,DepthScenes,duration_manipulation,ac,http://54.165.233.113/DepthDuration/depth_duration_Mturk/DepthDuration_HTML.html#12,12,2560,937,2560,1080,2-19-2021,10-12-46,153,depth_duration_stimuli/002725_2014-06-22_11-47-51_094959634447_rgbf000070-resize_1/002725_2014-06-22_11-47-51_094959634447_rgbf000070-resize_1-target.png,750,2.195,0.8983218163869693,4631,756,feet,1009566,1132583,60.0
1119,832052,DepthScenes,duration_manipulation,ac,http://54.165.233.113/DepthDuration/depth_duration_Mturk/DepthDuration_HTML.html#12,12,2560,937,2560,1080,2-19-2021,10-12-46,160,depth_duration_stimuli/000635_2014-06-08_16-38-42_260595134347_rgbf000106-resize_1/000635_2014-06-08_16-38-42_260595134347_rgbf000106-resize_1-target.png,750,2.074,1.0779861796643633,3997,760,feet,1009566,1132583,60.0
1121,832052,DepthScenes,duration_manipulation,ac,http://54.165.233.113/DepthDuration/depth_duration_Mturk/DepthDuration_HTML.html#12,12,2560,937,2560,1080,2-19-2021,10-12-46,162,depth_duration_stimuli/002199_2014-06-28_18-33-56_260595134347_rgbf000074-resize_0/002199_2014-06-28_18-33-56_260595134347_rgbf000074-resize_0-target.png,750,1.996,0.4192168476472523,4989,750,feet,1009566,1132583,60.0
1128,832052,DepthScenes,duration_manipulation,ac,http://54.165.233.113/DepthDuration/depth_duration_Mturk/DepthDuration_HTML.html#12,12,2560,937,2560,1080,2-19-2021,10-12-46,169,depth_duration_stimuli/002057_2014-06-24_21-00-13_260595134347_rgbf000120-resize_1/002057_2014-06-24_21-00-13_260595134347_rgbf000120-resize_1-target.png,750,2.967,1.1977624218492924,4384,751,feet,1009566,1132583,60.0
1131,832052,DepthScenes,duration_manipulation,ac,http://54.165.233.113/DepthDuration/depth_duration_Mturk/DepthDuration_HTML.html#12,12,2560,937,2560,1080,2-19-2021,10-12-46,172,depth_duration_stimuli/000742_2014-06-08_18-48-09_260595134347_rgbf000164-resize_4/000742_2014-06-08_18-48-09_260595134347_rgbf000164-resize_4-target.png,750,4.632,1.3175386640342217,3740,744,feet,1009566,1132583,60.0
1133,832052,DepthScenes,duration_manipulation,ac,http://54.165.233.113/DepthDuration/depth_duration_Mturk/DepthDuration_HTML.html#12,12,2560,937,2560,1080,2-19-2021,10-12-46,174,depth_duration_stimuli/002788_2014-06-22_19-36-03_094959634447_rgbf000088-resize_2/002788_2014-06-22_19-36-03_094959634447_rgbf000088-resize_2-target.png,750,1.6465,0.8384336952945046,4013,763,feet,1009566,1132583,60.0
1136,832052,DepthScenes,duration_manipulation,ac,http://54.165.233.113/DepthDuration/depth_duration_Mturk/DepthDuration_HTML.html#12,12,2560,937,2560,1080,2-19-2021,10-12-46,177,depth_duration_stimuli/000436_2014-06-09_22-25-11_260595134347_rgbf000137-resize_1/000436_2014-06-09_22-25-11_260595134347_rgbf000137-resize_1-target.png,750,4.0705,1.5570911484040801,4512,756,feet,1009566,1132583,60.0
1141,832052,DepthScenes,duration_manipulation,ac,http://54.165.233.113/DepthDuration/depth_duration_Mturk/DepthDuration_HTML.html#12,12,2560,937,2560,1080,2-19-2021,10-12-46,182,depth_duration_stimuli/000780_2014-06-08_22-28-29_260595134347_rgbf000126-resize_1/000780_2014-06-08_22-28-29_260595134347_rgbf000126-resize_1-target.png,750,3.3825,1.4373149062191508,4213,750,feet,1009566,1132583,60.0
1144,832052,DepthScenes,duration_manipulation,ac,http://54.165.233.113/DepthDuration/depth_duration_Mturk/DepthDuration_HTML.html#12,12,2560,937,2560,1080,2-19-2021,10-12-46,185,depth_duration_stimuli/003081_2014-06-15_15-19-16_094959634447_rgbf000150-resize_1/003081_2014-06-15_15-19-16_094959634447_rgbf000150-resize_1-target.png,750,3.9125,1.6768673905890092,4690,739,feet,1009566,1132583,60.0
1147,832052,DepthScenes,duration_manipulation,ac,http://54.165.233.113/DepthDuration/depth_duration_Mturk/DepthDuration_HTML.html#12,12,2560,937,2560,1080,2-19-2021,10-12-46,188,depth_duration_stimuli/001417_2014-06-19_16-25-36_260595134347_rgbf000115-resize_5/001417_2014-06-19_16-25-36_260595134347_rgbf000115-resize_5-target.png,750,4.6255,1.4373149062191508,4700,755,feet,1009566,1132583,60.0
1148,832052,DepthScenes,duration_manipulation,ac,http://54.165.233.113/DepthDuration/depth_duration_Mturk/DepthDuration_HTML.html#12,12,2560,937,2560,1080,2-19-2021,10-12-46,189,depth_duration_stimuli/002131_2014-06-25_21-12-01_260595134347_rgbf000083-resize_0/002131_2014-06-25_21-12-01_260595134347_rgbf000083-resize_0-target.png,750,1.7685,0.9582099374794338,3845,750,feet,1009566,1132583,60.0
1150,832052,DepthScenes,duration_manipulation,ac,http://54.165.233.113/DepthDuration/depth_duration_Mturk/DepthDuration_HTML.html#12,12,2560,937,2560,1080,2-19-2021,10-12-46,191,depth_duration_stimuli/001584_2014-06-20_11-07-43_260595134347_rgbf000002-resize_1/001584_2014-06-20_11-07-43_260595134347_rgbf000002-resize_1-target.png,750,3.53,0.9582099374794338,4957,750,feet,1009566,1132583,60.0
1346,710719,DepthScenes,duration_manipulation,ar,http://54.165.233.113/DepthDuration/depth_duration_Mturk/DepthDuration_HTML.html#72,72,1920,937,1920,1080,2-19-2021,10-26-9,3,depth_duration_stimuli/000869_2014-06-09_20-50-18_260595134347_rgbf000060-resize_3/000869_2014-06-09_20-50-18_260595134347_rgbf000060-resize_3-target.png,750,2.266,0.6757728253055355,2513,749,feet,732749,995931,39.0
1347,710719,DepthScenes,duration_manipulation,ar,http://54.165.233.113/DepthDuration/depth_duration_Mturk/DepthDuration_HTML.html#72,72,1920,937,1920,1080,2-19-2021,10-26-9,4,depth_duration_stimuli/000191_2014-05-12_17-07-38_260595134347_rgbf000199-resize_0/000191_2014-05-12_17-07-38_260595134347_rgbf000199-resize_0-target.png,750,3.7995,2.162473040977714,5042,751,feet,732749,995931,39.0
1348,710719,DepthScenes,duration_manipulation,ar,http://54.165.233.113/DepthDuration/depth_duration_Mturk/DepthDuration_HTML.html#72,72,1920,937,1920,1080,2-19-2021,10-26-9,5,depth_duration_stimuli/003292_2014-05-14_21-53-49_094959634447_rgbf000100-resize_2/003292_2014-05-14_21-53-49_094959634447_rgbf000100-resize_2-target.png,750,3.4815,0.6757728253055355,3977,750,feet,732749,995931,39.0
1349,710719,DepthScenes,duration_manipulation,ar,http://54.165.233.113/DepthDuration/depth_duration_Mturk/DepthDuration_HTML.html#72,72,1920,937,1920,1080,2-19-2021,10-26-9,6,depth_duration_stimuli/000929_2014-06-09_16-33-19_260595134347_rgbf000139-resize_0/000929_2014-06-09_16-33-19_260595134347_rgbf000139-resize_0-target.png,750,2.8680000000000003,0.6757728253055355,3497,743,feet,732749,995931,39.0
1350,710719,DepthScenes,duration_manipulation,ar,http://54.165.233.113/DepthDuration/depth_duration_Mturk/DepthDuration_HTML.html#72,72,1920,937,1920,1080,2-19-2021,10-26-9,7,depth_duration_stimuli/002272_2014-06-28_18-53-56_260595134347_rgbf000067-resize_2/002272_2014-06-28_18-53-56_260595134347_rgbf000067-resize_2-target.png,750,1.138,0.40546369518332137,2391,750,feet,732749,995931,39.0
1353,710719,DepthScenes,duration_manipulation,ar,http://54.165.233.113/DepthDuration/depth_duration_Mturk/DepthDuration_HTML.html#72,72,1920,937,1920,1080,2-19-2021,10-26-9,10,depth_duration_stimuli/002748_2014-06-22_19-07-22_094959634447_rgbf000078-resize_1/002748_2014-06-22_19-07-22_094959634447_rgbf000078-resize_1-target.png,750,4.6705,2.703091301222142,3438,693,feet,732749,995931,39.0
1363,710719,DepthScenes,duration_manipulation,ar,http://54.165.233.113/DepthDuration/depth_duration_Mturk/DepthDuration_HTML.html#72,72,1920,937,1920,1080,2-19-2021,10-26-9,20,depth_duration_stimuli/002464_2014-06-28_20-36-57_260595134347_rgbf000029-resize_0/002464_2014-06-28_20-36-57_260595134347_rgbf000029-resize_0-target.png,750,3.9525,0.40546369518332137,2342,750,feet,732749,995931,39.0
1367,710719,DepthScenes,duration_manipulation,ar,http://54.165.233.113/DepthDuration/depth_duration_Mturk/DepthDuration_HTML.html#72,72,1920,937,1920,1080,2-19-2021,10-26-9,24,depth_duration_stimuli/002570_2014-06-24_13-59-54_094959634447_rgbf000059-resize_0/002570_2014-06-24_13-59-54_094959634447_rgbf000059-resize_0-target.png,750,4.037,1.8921639108554995,2942,774,feet,732749,995931,39.0
1369,710719,DepthScenes,duration_manipulation,ar,http://54.165.233.113/DepthDuration/depth_duration_Mturk/DepthDuration_HTML.html#72,72,1920,937,1920,1080,2-19-2021,10-26-9,26,depth_duration_stimuli/001516_2014-06-20_16-25-09_260595134347_rgbf000076-resize_2/001516_2014-06-20_16-25-09_260595134347_rgbf000076-resize_2-target.png,750,1.7445,0.5406182602444285,2904,740,feet,732749,995931,39.0
1375,710719,DepthScenes,duration_manipulation,ar,http://54.165.233.113/DepthDuration/depth_duration_Mturk/DepthDuration_HTML.html#72,72,1920,937,1920,1080,2-19-2021,10-26-9,32,depth_duration_stimuli/002444_2014-06-28_20-32-08_260595134347_rgbf000027-resize_0/002444_2014-06-28_20-32-08_260595134347_rgbf000027-resize_0-target.png,750,4.388999999999999,2.162473040977714,2856,749,feet,732749,995931,39.0
1383,710719,DepthScenes,duration_manipulation,ar,http://54.165.233.113/DepthDuration/depth_duration_Mturk/DepthDuration_HTML.html#72,72,1920,937,1920,1080,2-19-2021,10-26-9,40,depth_duration_stimuli/000555_2014-06-09_22-42-23_260595134347_rgbf000037-resize_4/000555_2014-06-09_22-42-23_260595134347_rgbf000037-resize_4-target.png,750,1.9765,0.40546369518332137,2232,749,feet,732749,995931,39.0
1389,710719,DepthScenes,duration_manipulation,ar,http://54.165.233.113/DepthDuration/depth_duration_Mturk/DepthDuration_HTML.html#72,72,1920,937,1920,1080,2-19-2021,10-26-9,46,depth_duration_stimuli/002987_2014-06-08_18-48-20_094959634447_rgbf000022-resize_0/002987_2014-06-08_18-48-20_094959634447_rgbf000022-resize_0-target.png,750,2.6775,0.9460819554277498,3448,751,feet,732749,995931,39.0
1394,710719,DepthScenes,duration_manipulation,ar,http://54.165.233.113/DepthDuration/depth_duration_Mturk/DepthDuration_HTML.html#72,72,1920,937,1920,1080,2-19-2021,10-26-9,51,depth_duration_stimuli/000502_2014-06-08_23-02-32_260595134347_rgbf000063-resize_4/000502_2014-06-08_23-02-32_260595134347_rgbf000063-resize_4-target.png,750,2.431,0.5406182602444285,3065,750,feet,732749,995931,39.0
1395,710719,DepthScenes,duration_manipulation,ar,http://54.165.233.113/DepthDuration/depth_duration_Mturk/DepthDuration_HTML.html#72,72,1920,937,1920,1080,2-19-2021,10-26-9,52,depth_duration_stimuli/002964_2014-06-08_17-46-11_094959634447_rgbf000091-resize_4/002964_2014-06-08_17-46-11_094959634447_rgbf000091-resize_4-target.png,750,1.6909999999999998,0.40546369518332137,3012,751,feet,732749,995931,39.0
1396,710719,DepthScenes,duration_manipulation,ar,http://54.165.233.113/DepthDuration/depth_duration_Mturk/DepthDuration_HTML.html#72,72,1920,937,1920,1080,2-19-2021,10-26-9,53,depth_duration_stimuli/001289_2014-06-16_16-25-52_260595134347_rgbf000067-resize_1/001289_2014-06-16_16-25-52_260595134347_rgbf000067-resize_1-target.png,750,1.8835,0.5406182602444285,2691,746,feet,732749,995931,39.0
