,subjID,experimentName,versionName,sequenceName,url,selected_row,windowWidth,windowHeight,screenWidth,screenHeight,startDate,startTime,trial,stimulus,duration,actual_depth,depth_estimate,trial_RT,log_sceneDuration,unitSelection,experimentTime,totalTime,age,gender
1,710814,DepthScenes,duration_manipulation_targetAtFixation,jsons/ad_3.json,http://100.27.21.195/DepthDuration/v2_depth_duration_MTurk/v2_DepthDuration_HTML.html#8,8,1600,789,1600,900,9-11-2021,14-50-23,2,depth_duration_stimuli/000720_2014-06-08_18-37-27_260595134347_rgbf000203-resize_4/000720_2014-06-08_18-37-27_260595134347_rgbf000203-resize_4-target.png,1000,1.558,0.5467695274831242,2714,1001,feet,750381,902117,44,Man
10,710814,DepthScenes,duration_manipulation_targetAtFixation,jsons/ad_3.json,http://100.27.21.195/DepthDuration/v2_depth_duration_MTurk/v2_DepthDuration_HTML.html#8,8,1600,789,1600,900,9-11-2021,14-50-23,11,depth_duration_stimuli/001516_2014-06-20_16-25-09_260595134347_rgbf000076-resize_2/001516_2014-06-20_16-25-09_260595134347_rgbf000076-resize_2-target.png,1000,1.7445,0.7290260366441655,2450,1000,feet,750381,902117,44,Man
16,710814,DepthScenes,duration_manipulation_targetAtFixation,jsons/ad_3.json,http://100.27.21.195/DepthDuration/v2_depth_duration_MTurk/v2_DepthDuration_HTML.html#8,8,1600,789,1600,900,9-11-2021,14-50-23,17,depth_duration_stimuli/002365_2014-06-28_20-11-21_260595134347_rgbf000102-resize_1/002365_2014-06-28_20-11-21_260595134347_rgbf000102-resize_1-target.png,1000,4.013,1.6403085824493726,4331,1001,feet,750381,902117,44,Man
21,710814,DepthScenes,duration_manipulation_targetAtFixation,jsons/ad_3.json,http://100.27.21.195/DepthDuration/v2_depth_duration_MTurk/v2_DepthDuration_HTML.html#8,8,1600,789,1600,900,9-11-2021,14-50-23,22,depth_duration_stimuli/003010_2014-06-15_12-54-35_094959634447_rgbf000112-resize_0/003010_2014-06-15_12-54-35_094959634447_rgbf000112-resize_0-target.png,1000,3.1185,1.6403085824493726,9111,1000,feet,750381,902117,44,Man
22,710814,DepthScenes,duration_manipulation_targetAtFixation,jsons/ad_3.json,http://100.27.21.195/DepthDuration/v2_depth_duration_MTurk/v2_DepthDuration_HTML.html#8,8,1600,789,1600,900,9-11-2021,14-50-23,23,depth_duration_stimuli/002988_2014-06-15_12-24-20_094959634447_rgbf000150-resize_1/002988_2014-06-15_12-24-20_094959634447_rgbf000150-resize_1-target.png,1000,4.767,1.6403085824493726,3602,1000,feet,750381,902117,44,Man
24,710814,DepthScenes,duration_manipulation_targetAtFixation,jsons/ad_3.json,http://100.27.21.195/DepthDuration/v2_depth_duration_MTurk/v2_DepthDuration_HTML.html#8,8,1600,789,1600,900,9-11-2021,14-50-23,25,depth_duration_stimuli/001808_2014-06-26_20-50-58_260595134347_rgbf000029-resize_1/001808_2014-06-26_20-50-58_260595134347_rgbf000029-resize_1-target.png,1000,4.249,1.2757955641272896,4309,999,feet,750381,902117,44,Man
31,710814,DepthScenes,duration_manipulation_targetAtFixation,jsons/ad_3.json,http://100.27.21.195/DepthDuration/v2_depth_duration_MTurk/v2_DepthDuration_HTML.html#8,8,1600,789,1600,900,9-11-2021,14-50-23,32,depth_duration_stimuli/002460_2014-06-28_20-35-43_260595134347_rgbf000028-resize_4/002460_2014-06-28_20-35-43_260595134347_rgbf000028-resize_4-target.png,1000,2.269,0.36451301832208277,3338,999,feet,750381,902117,44,Man
34,710814,DepthScenes,duration_manipulation_targetAtFixation,jsons/ad_3.json,http://100.27.21.195/DepthDuration/v2_depth_duration_MTurk/v2_DepthDuration_HTML.html#8,8,1600,789,1600,900,9-11-2021,14-50-23,35,depth_duration_stimuli/002118_2014-06-25_20-32-08_260595134347_rgbf000078-resize_1/002118_2014-06-25_20-32-08_260595134347_rgbf000078-resize_1-target.png,1000,2.646,0.911282545805207,3842,1000,feet,750381,902117,44,Man
35,710814,DepthScenes,duration_manipulation_targetAtFixation,jsons/ad_3.json,http://100.27.21.195/DepthDuration/v2_depth_duration_MTurk/v2_DepthDuration_HTML.html#8,8,1600,789,1600,900,9-11-2021,14-50-23,36,depth_duration_stimuli/000878_2014-06-08_22-52-45_260595134347_rgbf000045-resize_2/000878_2014-06-08_22-52-45_260595134347_rgbf000045-resize_2-target.png,1000,2.092,0.5467695274831242,2362,999,feet,750381,902117,44,Man
37,710814,DepthScenes,duration_manipulation_targetAtFixation,jsons/ad_3.json,http://100.27.21.195/DepthDuration/v2_depth_duration_MTurk/v2_DepthDuration_HTML.html#8,8,1600,789,1600,900,9-11-2021,14-50-23,38,depth_duration_stimuli/002549_2014-06-24_13-41-39_094959634447_rgbf000022-resize_3/002549_2014-06-24_13-41-39_094959634447_rgbf000022-resize_3-target.png,1000,1.476,0.36451301832208277,2531,1001,feet,750381,902117,44,Man
38,710814,DepthScenes,duration_manipulation_targetAtFixation,jsons/ad_3.json,http://100.27.21.195/DepthDuration/v2_depth_duration_MTurk/v2_DepthDuration_HTML.html#8,8,1600,789,1600,900,9-11-2021,14-50-23,39,depth_duration_stimuli/002995_2014-06-15_12-31-26_094959634447_rgbf000150-resize_1/002995_2014-06-15_12-31-26_094959634447_rgbf000150-resize_1-target.png,1000,3.836,0.36451301832208277,8019,1549,feet,750381,902117,44,Man
42,710814,DepthScenes,duration_manipulation_targetAtFixation,jsons/ad_3.json,http://100.27.21.195/DepthDuration/v2_depth_duration_MTurk/v2_DepthDuration_HTML.html#8,8,1600,789,1600,900,9-11-2021,14-50-23,43,depth_duration_stimuli/003292_2014-05-14_21-53-49_094959634447_rgbf000100-resize_2/003292_2014-05-14_21-53-49_094959634447_rgbf000100-resize_2-target.png,1000,3.4815,0.7290260366441655,2419,1000,feet,750381,902117,44,Man
49,710814,DepthScenes,duration_manipulation_targetAtFixation,jsons/ad_3.json,http://100.27.21.195/DepthDuration/v2_depth_duration_MTurk/v2_DepthDuration_HTML.html#8,8,1600,789,1600,900,9-11-2021,14-50-23,50,depth_duration_stimuli/002758_2014-06-22_19-11-20_094959634447_rgbf000128-resize_1/002758_2014-06-22_19-11-20_094959634447_rgbf000128-resize_1-target.png,1000,2.555,0.7290260366441655,3322,999,feet,750381,902117,44,Man
50,710814,DepthScenes,duration_manipulation_targetAtFixation,jsons/ad_3.json,http://100.27.21.195/DepthDuration/v2_depth_duration_MTurk/v2_DepthDuration_HTML.html#8,8,1600,789,1600,900,9-11-2021,14-50-23,51,depth_duration_stimuli/002468_2014-06-28_20-38-39_260595134347_rgbf000045-resize_1/002468_2014-06-28_20-38-39_260595134347_rgbf000045-resize_1-target.png,1000,1.956,0.911282545805207,4449,998,feet,750381,902117,44,Man
60,710814,DepthScenes,duration_manipulation_targetAtFixation,jsons/ad_3.json,http://100.27.21.195/DepthDuration/v2_depth_duration_MTurk/v2_DepthDuration_HTML.html#8,8,1600,789,1600,900,9-11-2021,14-50-23,61,depth_duration_stimuli/003070_2014-06-15_14-58-27_094959634447_rgbf000150-resize_3/003070_2014-06-15_14-58-27_094959634447_rgbf000150-resize_3-target.png,1000,2.9415,0.911282545805207,2914,999,feet,750381,902117,44,Man
61,710814,DepthScenes,duration_manipulation_targetAtFixation,jsons/ad_3.json,http://100.27.21.195/DepthDuration/v2_depth_duration_MTurk/v2_DepthDuration_HTML.html#8,8,1600,789,1600,900,9-11-2021,14-50-23,62,depth_duration_stimuli/001289_2014-06-16_16-25-52_260595134347_rgbf000067-resize_1/001289_2014-06-16_16-25-52_260595134347_rgbf000067-resize_1-target.png,1000,1.8835,0.5467695274831242,2508,1000,feet,750381,902117,44,Man
63,710814,DepthScenes,duration_manipulation_targetAtFixation,jsons/ad_3.json,http://100.27.21.195/DepthDuration/v2_depth_duration_MTurk/v2_DepthDuration_HTML.html#8,8,1600,789,1600,900,9-11-2021,14-50-23,64,depth_duration_stimuli/000927_2014-06-09_16-32-30_260595134347_rgbf000123-resize_3/000927_2014-06-09_16-32-30_260595134347_rgbf000123-resize_3-target.png,1000,2.6785,0.911282545805207,2707,1000,feet,750381,902117,44,Man
69,710814,DepthScenes,duration_manipulation_targetAtFixation,jsons/ad_3.json,http://100.27.21.195/DepthDuration/v2_depth_duration_MTurk/v2_DepthDuration_HTML.html#8,8,1600,789,1600,900,9-11-2021,14-50-23,70,depth_duration_stimuli/002570_2014-06-24_13-59-54_094959634447_rgbf000059-resize_0/002570_2014-06-24_13-59-54_094959634447_rgbf000059-resize_0-target.png,1000,4.037,1.6403085824493726,3651,999,feet,750381,902117,44,Man
75,710814,DepthScenes,duration_manipulation_targetAtFixation,jsons/ad_3.json,http://100.27.21.195/DepthDuration/v2_depth_duration_MTurk/v2_DepthDuration_HTML.html#8,8,1600,789,1600,900,9-11-2021,14-50-23,76,depth_duration_stimuli/002700_2014-06-22_11-27-02_094959634447_rgbf000124-resize_3/002700_2014-06-22_11-27-02_094959634447_rgbf000124-resize_3-target.png,1000,3.301,0.7290260366441655,2402,999,feet,750381,902117,44,Man
79,710814,DepthScenes,duration_manipulation_targetAtFixation,jsons/ad_3.json,http://100.27.21.195/DepthDuration/v2_depth_duration_MTurk/v2_DepthDuration_HTML.html#8,8,1600,789,1600,900,9-11-2021,14-50-23,80,depth_duration_stimuli/000191_2014-05-12_17-07-38_260595134347_rgbf000199-resize_0/000191_2014-05-12_17-07-38_260595134347_rgbf000199-resize_0-target.png,1000,3.7995,1.458052073288331,2875,1000,feet,750381,902117,44,Man
80,710814,DepthScenes,duration_manipulation_targetAtFixation,jsons/ad_3.json,http://100.27.21.195/DepthDuration/v2_depth_duration_MTurk/v2_DepthDuration_HTML.html#8,8,1600,789,1600,900,9-11-2021,14-50-23,81,depth_duration_stimuli/003092_2014-06-24_21-01-49_094959634447_rgbf000049-resize_2/003092_2014-06-24_21-01-49_094959634447_rgbf000049-resize_2-target.png,1000,1.666,0.5467695274831242,2554,999,feet,750381,902117,44,Man
84,710814,DepthScenes,duration_manipulation_targetAtFixation,jsons/ad_3.json,http://100.27.21.195/DepthDuration/v2_depth_duration_MTurk/v2_DepthDuration_HTML.html#8,8,1600,789,1600,900,9-11-2021,14-50-23,85,depth_duration_stimuli/001392_2014-06-19_16-07-59_260595134347_rgbf000046-resize_1/001392_2014-06-19_16-07-59_260595134347_rgbf000046-resize_1-target.png,1000,4.135,1.0935390549662485,2667,1000,feet,750381,902117,44,Man
85,710814,DepthScenes,duration_manipulation_targetAtFixation,jsons/ad_3.json,http://100.27.21.195/DepthDuration/v2_depth_duration_MTurk/v2_DepthDuration_HTML.html#8,8,1600,789,1600,900,9-11-2021,14-50-23,86,depth_duration_stimuli/002444_2014-06-28_20-32-08_260595134347_rgbf000027-resize_0/002444_2014-06-28_20-32-08_260595134347_rgbf000027-resize_0-target.png,1000,4.389,1.2757955641272896,2476,1000,feet,750381,902117,44,Man
88,710814,DepthScenes,duration_manipulation_targetAtFixation,jsons/ad_3.json,http://100.27.21.195/DepthDuration/v2_depth_duration_MTurk/v2_DepthDuration_HTML.html#8,8,1600,789,1600,900,9-11-2021,14-50-23,89,depth_duration_stimuli/001815_2014-06-26_20-52-55_260595134347_rgbf000020-resize_0/001815_2014-06-26_20-52-55_260595134347_rgbf000020-resize_0-target.png,1000,3.3865,1.6403085824493726,3043,1000,feet,750381,902117,44,Man
98,710814,DepthScenes,duration_manipulation_targetAtFixation,jsons/ad_3.json,http://100.27.21.195/DepthDuration/v2_depth_duration_MTurk/v2_DepthDuration_HTML.html#8,8,1600,789,1600,900,9-11-2021,14-50-23,99,depth_duration_stimuli/000800_2014-06-08_22-42-09_260595134347_rgbf000095-resize_3/000800_2014-06-08_22-42-09_260595134347_rgbf000095-resize_3-target.png,1000,2.8,1.2757955641272896,2609,998,feet,750381,902117,44,Man
102,710814,DepthScenes,duration_manipulation_targetAtFixation,jsons/ad_3.json,http://100.27.21.195/DepthDuration/v2_depth_duration_MTurk/v2_DepthDuration_HTML.html#8,8,1600,789,1600,900,9-11-2021,14-50-23,103,depth_duration_stimuli/000739_2014-06-08_18-45-58_260595134347_rgbf000068-resize_1/000739_2014-06-08_18-45-58_260595134347_rgbf000068-resize_1-target.png,1000,3.534,1.2757955641272896,2891,999,feet,750381,902117,44,Man
105,710814,DepthScenes,duration_manipulation_targetAtFixation,jsons/ad_3.json,http://100.27.21.195/DepthDuration/v2_depth_duration_MTurk/v2_DepthDuration_HTML.html#8,8,1600,789,1600,900,9-11-2021,14-50-23,106,depth_duration_stimuli/000109_2014-05-14_23-41-52_260595134347_rgbf000035-resize_9/000109_2014-05-14_23-41-52_260595134347_rgbf000035-resize_9-target.png,1000,1.3545,0.5467695274831242,2938,1000,feet,750381,902117,44,Man
106,710814,DepthScenes,duration_manipulation_targetAtFixation,jsons/ad_3.json,http://100.27.21.195/DepthDuration/v2_depth_duration_MTurk/v2_DepthDuration_HTML.html#8,8,1600,789,1600,900,9-11-2021,14-50-23,107,depth_duration_stimuli/003129_2014-05-12_10-48-10_094959634447_rgbf000100-resize_0/003129_2014-05-12_10-48-10_094959634447_rgbf000100-resize_0-target.png,1000,4.9305,1.2757955641272896,3875,999,feet,750381,902117,44,Man
112,710814,DepthScenes,duration_manipulation_targetAtFixation,jsons/ad_3.json,http://100.27.21.195/DepthDuration/v2_depth_duration_MTurk/v2_DepthDuration_HTML.html#8,8,1600,789,1600,900,9-11-2021,14-50-23,113,depth_duration_stimuli/003338_2014-05-20_11-01-23_094959634447_rgbf000051-resize_6/003338_2014-05-20_11-01-23_094959634447_rgbf000051-resize_6-target.png,1000,1.693,0.36451301832208277,2835,1000,feet,750381,902117,44,Man
116,710814,DepthScenes,duration_manipulation_targetAtFixation,jsons/ad_3.json,http://100.27.21.195/DepthDuration/v2_depth_duration_MTurk/v2_DepthDuration_HTML.html#8,8,1600,789,1600,900,9-11-2021,14-50-23,117,depth_duration_stimuli/002875_2014-06-01_15-19-00_094959634447_rgbf000151-resize_1/002875_2014-06-01_15-19-00_094959634447_rgbf000151-resize_1-target.png,1000,1.9675,1.458052073288331,2355,999,feet,750381,902117,44,Man
120,710814,DepthScenes,duration_manipulation_targetAtFixation,jsons/ad_3.json,http://100.27.21.195/DepthDuration/v2_depth_duration_MTurk/v2_DepthDuration_HTML.html#8,8,1600,789,1600,900,9-11-2021,14-50-23,121,depth_duration_stimuli/001011_2014-06-08_23-18-54_260595134347_rgbf000044-resize_4/001011_2014-06-08_23-18-54_260595134347_rgbf000044-resize_4-target.png,1000,2.473,0.911282545805207,2572,1001,feet,750381,902117,44,Man
123,710814,DepthScenes,duration_manipulation_targetAtFixation,jsons/ad_3.json,http://100.27.21.195/DepthDuration/v2_depth_duration_MTurk/v2_DepthDuration_HTML.html#8,8,1600,789,1600,900,9-11-2021,14-50-23,124,depth_duration_stimuli/003621_2014-05-23_18-06-08_094959634447_rgbf000101-resize_1/003621_2014-05-23_18-06-08_094959634447_rgbf000101-resize_1-target.png,1000,3.9835,1.0935390549662485,10083,1000,feet,750381,902117,44,Man
129,710814,DepthScenes,duration_manipulation_targetAtFixation,jsons/ad_3.json,http://100.27.21.195/DepthDuration/v2_depth_duration_MTurk/v2_DepthDuration_HTML.html#8,8,1600,789,1600,900,9-11-2021,14-50-23,130,depth_duration_stimuli/001181_2014-06-17_15-50-57_260595134347_rgbf000106-resize_4/001181_2014-06-17_15-50-57_260595134347_rgbf000106-resize_4-target.png,1000,4.149,1.0935390549662485,6573,1000,feet,750381,902117,44,Man
137,710814,DepthScenes,duration_manipulation_targetAtFixation,jsons/ad_3.json,http://100.27.21.195/DepthDuration/v2_depth_duration_MTurk/v2_DepthDuration_HTML.html#8,8,1600,789,1600,900,9-11-2021,14-50-23,138,depth_duration_stimuli/003079_2014-06-15_15-18-20_094959634447_rgbf000152-resize_8/003079_2014-06-15_15-18-20_094959634447_rgbf000152-resize_8-target.png,1000,2.8775,1.6403085824493726,2662,999,feet,750381,902117,44,Man
139,710814,DepthScenes,duration_manipulation_targetAtFixation,jsons/ad_3.json,http://100.27.21.195/DepthDuration/v2_depth_duration_MTurk/v2_DepthDuration_HTML.html#8,8,1600,789,1600,900,9-11-2021,14-50-23,140,depth_duration_stimuli/000866_2014-06-09_20-45-42_260595134347_rgbf000139-resize_1/000866_2014-06-09_20-45-42_260595134347_rgbf000139-resize_1-target.png,1000,3.2155,1.2757955641272896,2912,998,feet,750381,902117,44,Man
140,710814,DepthScenes,duration_manipulation_targetAtFixation,jsons/ad_3.json,http://100.27.21.195/DepthDuration/v2_depth_duration_MTurk/v2_DepthDuration_HTML.html#8,8,1600,789,1600,900,9-11-2021,14-50-23,141,depth_duration_stimuli/002663_2014-06-13_15-50-26_094959634447_rgbf000075-resize_1/002663_2014-06-13_15-50-26_094959634447_rgbf000075-resize_1-target.png,1000,4.7495,1.6403085824493726,3886,1000,feet,750381,902117,44,Man
144,710814,DepthScenes,duration_manipulation_targetAtFixation,jsons/ad_3.json,http://100.27.21.195/DepthDuration/v2_depth_duration_MTurk/v2_DepthDuration_HTML.html#8,8,1600,789,1600,900,9-11-2021,14-50-23,145,depth_duration_stimuli/002213_2014-06-28_18-37-58_260595134347_rgbf000055-resize_1/002213_2014-06-28_18-37-58_260595134347_rgbf000055-resize_1-target.png,1000,3.62,1.6403085824493726,2465,999,feet,750381,902117,44,Man
147,710814,DepthScenes,duration_manipulation_targetAtFixation,jsons/ad_3.json,http://100.27.21.195/DepthDuration/v2_depth_duration_MTurk/v2_DepthDuration_HTML.html#8,8,1600,789,1600,900,9-11-2021,14-50-23,148,depth_duration_stimuli/002209_2014-06-28_18-36-10_260595134347_rgbf000051-resize_1/002209_2014-06-28_18-36-10_260595134347_rgbf000051-resize_1-target.png,1000,2.057,0.36451301832208277,2857,1000,feet,750381,902117,44,Man
152,710814,DepthScenes,duration_manipulation_targetAtFixation,jsons/ad_3.json,http://100.27.21.195/DepthDuration/v2_depth_duration_MTurk/v2_DepthDuration_HTML.html#8,8,1600,789,1600,900,9-11-2021,14-50-23,153,depth_duration_stimuli/000502_2014-06-08_23-02-32_260595134347_rgbf000063-resize_4/000502_2014-06-08_23-02-32_260595134347_rgbf000063-resize_4-target.png,1000,2.431,0.7290260366441655,2691,1000,feet,750381,902117,44,Man
153,710814,DepthScenes,duration_manipulation_targetAtFixation,jsons/ad_3.json,http://100.27.21.195/DepthDuration/v2_depth_duration_MTurk/v2_DepthDuration_HTML.html#8,8,1600,789,1600,900,9-11-2021,14-50-23,154,depth_duration_stimuli/000542_2014-06-08_18-27-08_260595134347_rgbf000118-resize_1/000542_2014-06-08_18-27-08_260595134347_rgbf000118-resize_1-target.png,1000,3.0,0.7290260366441655,2832,999,feet,750381,902117,44,Man
158,710814,DepthScenes,duration_manipulation_targetAtFixation,jsons/ad_3.json,http://100.27.21.195/DepthDuration/v2_depth_duration_MTurk/v2_DepthDuration_HTML.html#8,8,1600,789,1600,900,9-11-2021,14-50-23,159,depth_duration_stimuli/001571_2014-06-20_17-21-32_260595134347_rgbf000089-resize_1/001571_2014-06-20_17-21-32_260595134347_rgbf000089-resize_1-target.png,1000,1.86,0.5467695274831242,3390,1000,feet,750381,902117,44,Man
160,710814,DepthScenes,duration_manipulation_targetAtFixation,jsons/ad_3.json,http://100.27.21.195/DepthDuration/v2_depth_duration_MTurk/v2_DepthDuration_HTML.html#8,8,1600,789,1600,900,9-11-2021,14-50-23,161,depth_duration_stimuli/002788_2014-06-22_19-36-03_094959634447_rgbf000088-resize_2/002788_2014-06-22_19-36-03_094959634447_rgbf000088-resize_2-target.png,1000,1.6465,0.36451301832208277,2775,1000,feet,750381,902117,44,Man
161,710814,DepthScenes,duration_manipulation_targetAtFixation,jsons/ad_3.json,http://100.27.21.195/DepthDuration/v2_depth_duration_MTurk/v2_DepthDuration_HTML.html#8,8,1600,789,1600,900,9-11-2021,14-50-23,162,depth_duration_stimuli/002637_2014-06-24_14-51-13_094959634447_rgbf000066-resize_4/002637_2014-06-24_14-51-13_094959634447_rgbf000066-resize_4-target.png,1000,1.9955,1.0935390549662485,5475,999,feet,750381,902117,44,Man
166,710814,DepthScenes,duration_manipulation_targetAtFixation,jsons/ad_3.json,http://100.27.21.195/DepthDuration/v2_depth_duration_MTurk/v2_DepthDuration_HTML.html#8,8,1600,789,1600,900,9-11-2021,14-50-23,167,depth_duration_stimuli/000692_2014-06-08_13-09-42_260595134347_rgbf000199-resize_2/000692_2014-06-08_13-09-42_260595134347_rgbf000199-resize_2-target.png,1000,3.661,1.458052073288331,3561,1000,feet,750381,902117,44,Man
168,710814,DepthScenes,duration_manipulation_targetAtFixation,jsons/ad_3.json,http://100.27.21.195/DepthDuration/v2_depth_duration_MTurk/v2_DepthDuration_HTML.html#8,8,1600,789,1600,900,9-11-2021,14-50-23,169,depth_duration_stimuli/002579_2014-06-24_14-08-03_094959634447_rgbf000061-resize_2/002579_2014-06-24_14-08-03_094959634447_rgbf000061-resize_2-target.png,1000,2.223125,0.5467695274831242,3940,1000,feet,750381,902117,44,Man
170,710814,DepthScenes,duration_manipulation_targetAtFixation,jsons/ad_3.json,http://100.27.21.195/DepthDuration/v2_depth_duration_MTurk/v2_DepthDuration_HTML.html#8,8,1600,789,1600,900,9-11-2021,14-50-23,171,depth_duration_stimuli/001094_2014-06-15_17-36-00_260595134347_rgbf000205-resize_0/001094_2014-06-15_17-36-00_260595134347_rgbf000205-resize_0-target.png,1000,4.2175,1.6403085824493726,2927,999,feet,750381,902117,44,Man
187,710814,DepthScenes,duration_manipulation_targetAtFixation,jsons/ad_3.json,http://100.27.21.195/DepthDuration/v2_depth_duration_MTurk/v2_DepthDuration_HTML.html#8,8,1600,789,1600,900,9-11-2021,14-50-23,188,depth_duration_stimuli/000447_2014-06-08_16-15-46_260595134347_rgbf000130-resize_1/000447_2014-06-08_16-15-46_260595134347_rgbf000130-resize_1-target.png,1000,4.479,1.6403085824493726,2677,1000,feet,750381,902117,44,Man
189,710814,DepthScenes,duration_manipulation_targetAtFixation,jsons/ad_3.json,http://100.27.21.195/DepthDuration/v2_depth_duration_MTurk/v2_DepthDuration_HTML.html#8,8,1600,789,1600,900,9-11-2021,14-50-23,190,depth_duration_stimuli/003492_2014-05-21_15-50-55_094959634447_rgbf000828-resize_1/003492_2014-05-21_15-50-55_094959634447_rgbf000828-resize_1-target.png,1000,4.06875,1.458052073288331,2675,999,feet,750381,902117,44,Man
197,665311,DepthScenes,duration_manipulation_targetAtFixation,jsons/ah.json,http://35.173.220.167/DepthDuration/v2_depth_duration_MTurk/v2_DepthDuration_HTML.html#1,1,1150,643,1366,768,9-7-2021,14-55-22,6,depth_duration_stimuli/000191_2014-05-12_17-07-38_260595134347_rgbf000199-resize_0/000191_2014-05-12_17-07-38_260595134347_rgbf000199-resize_0-target.png,1000,3.7995,0.7485148514851482,3589,1007,feet,1149535,1196883,25,Man
198,665311,DepthScenes,duration_manipulation_targetAtFixation,jsons/ah.json,http://35.173.220.167/DepthDuration/v2_depth_duration_MTurk/v2_DepthDuration_HTML.html#1,1,1150,643,1366,768,9-7-2021,14-55-22,7,depth_duration_stimuli/000720_2014-06-08_18-37-27_260595134347_rgbf000203-resize_4/000720_2014-06-08_18-37-27_260595134347_rgbf000203-resize_4-target.png,1000,1.558,0.5988118811881186,3545,1000,feet,1149535,1196883,25,Man
202,665311,DepthScenes,duration_manipulation_targetAtFixation,jsons/ah.json,http://35.173.220.167/DepthDuration/v2_depth_duration_MTurk/v2_DepthDuration_HTML.html#1,1,1150,643,1366,768,9-7-2021,14-55-22,11,depth_duration_stimuli/001214_2014-06-17_16-13-55_260595134347_rgbf000111-resize_0/001214_2014-06-17_16-13-55_260595134347_rgbf000111-resize_0-target.png,1000,2.6505,1.1976237623762371,3685,996,feet,1149535,1196883,25,Man
205,665311,DepthScenes,duration_manipulation_targetAtFixation,jsons/ah.json,http://35.173.220.167/DepthDuration/v2_depth_duration_MTurk/v2_DepthDuration_HTML.html#1,1,1150,643,1366,768,9-7-2021,14-55-22,14,depth_duration_stimuli/002570_2014-06-24_13-59-54_094959634447_rgbf000059-resize_0/002570_2014-06-24_13-59-54_094959634447_rgbf000059-resize_0-target.png,1000,4.037,1.0479207920792075,3815,1007,feet,1149535,1196883,25,Man
208,665311,DepthScenes,duration_manipulation_targetAtFixation,jsons/ah.json,http://35.173.220.167/DepthDuration/v2_depth_duration_MTurk/v2_DepthDuration_HTML.html#1,1,1150,643,1366,768,9-7-2021,14-55-22,17,depth_duration_stimuli/003587_2014-05-23_16-48-02_094959634447_rgbf002384-resize_2/003587_2014-05-23_16-48-02_094959634447_rgbf002384-resize_2-target.png,1000,1.357,0.7485148514851482,3512,999,feet,1149535,1196883,25,Man
210,665311,DepthScenes,duration_manipulation_targetAtFixation,jsons/ah.json,http://35.173.220.167/DepthDuration/v2_depth_duration_MTurk/v2_DepthDuration_HTML.html#1,1,1150,643,1366,768,9-7-2021,14-55-22,19,depth_duration_stimuli/002988_2014-06-15_12-24-20_094959634447_rgbf000150-resize_1/002988_2014-06-15_12-24-20_094959634447_rgbf000150-resize_1-target.png,1000,4.767,0.5988118811881186,3761,1001,feet,1149535,1196883,25,Man
211,665311,DepthScenes,duration_manipulation_targetAtFixation,jsons/ah.json,http://35.173.220.167/DepthDuration/v2_depth_duration_MTurk/v2_DepthDuration_HTML.html#1,1,1150,643,1366,768,9-7-2021,14-55-22,20,depth_duration_stimuli/003621_2014-05-23_18-06-08_094959634447_rgbf000101-resize_1/003621_2014-05-23_18-06-08_094959634447_rgbf000101-resize_1-target.png,1000,3.9835,0.8982178217821779,3432,998,feet,1149535,1196883,25,Man
215,665311,DepthScenes,duration_manipulation_targetAtFixation,jsons/ah.json,http://35.173.220.167/DepthDuration/v2_depth_duration_MTurk/v2_DepthDuration_HTML.html#1,1,1150,643,1366,768,9-7-2021,14-55-22,24,depth_duration_stimuli/002790_2014-06-22_19-36-35_094959634447_rgbf000074-resize_4/002790_2014-06-22_19-36-35_094959634447_rgbf000074-resize_4-target.png,1000,3.512,0.8982178217821779,3507,1007,feet,1149535,1196883,25,Man
216,665311,DepthScenes,duration_manipulation_targetAtFixation,jsons/ah.json,http://35.173.220.167/DepthDuration/v2_depth_duration_MTurk/v2_DepthDuration_HTML.html#1,1,1150,643,1366,768,9-7-2021,14-55-22,25,depth_duration_stimuli/002905_2014-06-03_18-04-43_094959634447_rgbf000151-resize_2/002905_2014-06-03_18-04-43_094959634447_rgbf000151-resize_2-target.png,1000,2.0295,0.8982178217821779,3484,998,feet,1149535,1196883,25,Man
220,665311,DepthScenes,duration_manipulation_targetAtFixation,jsons/ah.json,http://35.173.220.167/DepthDuration/v2_depth_duration_MTurk/v2_DepthDuration_HTML.html#1,1,1150,643,1366,768,9-7-2021,14-55-22,29,depth_duration_stimuli/001167_2014-06-17_15-38-07_260595134347_rgbf000108-resize_0/001167_2014-06-17_15-38-07_260595134347_rgbf000108-resize_0-target.png,1000,1.8505,0.8982178217821779,3290,990,feet,1149535,1196883,25,Man
224,665311,DepthScenes,duration_manipulation_targetAtFixation,jsons/ah.json,http://35.173.220.167/DepthDuration/v2_depth_duration_MTurk/v2_DepthDuration_HTML.html#1,1,1150,643,1366,768,9-7-2021,14-55-22,33,depth_duration_stimuli/003492_2014-05-21_15-50-55_094959634447_rgbf000828-resize_1/003492_2014-05-21_15-50-55_094959634447_rgbf000828-resize_1-target.png,1000,4.06875,0.7485148514851482,3609,997,feet,1149535,1196883,25,Man
229,665311,DepthScenes,duration_manipulation_targetAtFixation,jsons/ah.json,http://35.173.220.167/DepthDuration/v2_depth_duration_MTurk/v2_DepthDuration_HTML.html#1,1,1150,643,1366,768,9-7-2021,14-55-22,38,depth_duration_stimuli/000929_2014-06-09_16-33-19_260595134347_rgbf000139-resize_0/000929_2014-06-09_16-33-19_260595134347_rgbf000139-resize_0-target.png,1000,2.868,1.1976237623762371,3480,996,feet,1149535,1196883,25,Man
242,665311,DepthScenes,duration_manipulation_targetAtFixation,jsons/ah.json,http://35.173.220.167/DepthDuration/v2_depth_duration_MTurk/v2_DepthDuration_HTML.html#1,1,1150,643,1366,768,9-7-2021,14-55-22,51,depth_duration_stimuli/002875_2014-06-01_15-19-00_094959634447_rgbf000151-resize_1/002875_2014-06-01_15-19-00_094959634447_rgbf000151-resize_1-target.png,1000,1.9675,1.1976237623762371,3238,993,feet,1149535,1196883,25,Man
243,665311,DepthScenes,duration_manipulation_targetAtFixation,jsons/ah.json,http://35.173.220.167/DepthDuration/v2_depth_duration_MTurk/v2_DepthDuration_HTML.html#1,1,1150,643,1366,768,9-7-2021,14-55-22,52,depth_duration_stimuli/001029_2014-06-08_13-17-57_260595134347_rgbf000065-resize_1/001029_2014-06-08_13-17-57_260595134347_rgbf000065-resize_1-target.png,1000,3.0835,0.8982178217821779,3862,995,feet,1149535,1196883,25,Man
262,665311,DepthScenes,duration_manipulation_targetAtFixation,jsons/ah.json,http://35.173.220.167/DepthDuration/v2_depth_duration_MTurk/v2_DepthDuration_HTML.html#1,1,1150,643,1366,768,9-7-2021,14-55-22,71,depth_duration_stimuli/001100_2014-06-15_17-46-26_260595134347_rgbf000225-resize_2/001100_2014-06-15_17-46-26_260595134347_rgbf000225-resize_2-target.png,1000,2.24,1.1976237623762371,3670,1000,feet,1149535,1196883,25,Man
266,665311,DepthScenes,duration_manipulation_targetAtFixation,jsons/ah.json,http://35.173.220.167/DepthDuration/v2_depth_duration_MTurk/v2_DepthDuration_HTML.html#1,1,1150,643,1366,768,9-7-2021,14-55-22,75,depth_duration_stimuli/000735_2014-06-08_18-23-50_260595134347_rgbf000163-resize_2/000735_2014-06-08_18-23-50_260595134347_rgbf000163-resize_2-target.png,1000,4.1695,1.4970297029702964,4213,995,feet,1149535,1196883,25,Man
270,665311,DepthScenes,duration_manipulation_targetAtFixation,jsons/ah.json,http://35.173.220.167/DepthDuration/v2_depth_duration_MTurk/v2_DepthDuration_HTML.html#1,1,1150,643,1366,768,9-7-2021,14-55-22,79,depth_duration_stimuli/002788_2014-06-22_19-36-03_094959634447_rgbf000088-resize_2/002788_2014-06-22_19-36-03_094959634447_rgbf000088-resize_2-target.png,1000,1.6465,1.4970297029702964,4000,1010,feet,1149535,1196883,25,Man
271,665311,DepthScenes,duration_manipulation_targetAtFixation,jsons/ah.json,http://35.173.220.167/DepthDuration/v2_depth_duration_MTurk/v2_DepthDuration_HTML.html#1,1,1150,643,1366,768,9-7-2021,14-55-22,80,depth_duration_stimuli/002805_2014-06-22_19-54-03_094959634447_rgbf000079-resize_1/002805_2014-06-22_19-54-03_094959634447_rgbf000079-resize_1-target.png,1000,3.144,1.7964356435643558,3606,998,feet,1149535,1196883,25,Man
275,665311,DepthScenes,duration_manipulation_targetAtFixation,jsons/ah.json,http://35.173.220.167/DepthDuration/v2_depth_duration_MTurk/v2_DepthDuration_HTML.html#1,1,1150,643,1366,768,9-7-2021,14-55-22,84,depth_duration_stimuli/001199_2014-06-17_16-03-48_260595134347_rgbf000077-resize_0/001199_2014-06-17_16-03-48_260595134347_rgbf000077-resize_0-target.png,1000,3.4375,1.4970297029702964,4087,1009,feet,1149535,1196883,25,Man
278,665311,DepthScenes,duration_manipulation_targetAtFixation,jsons/ah.json,http://35.173.220.167/DepthDuration/v2_depth_duration_MTurk/v2_DepthDuration_HTML.html#1,1,1150,643,1366,768,9-7-2021,14-55-22,87,depth_duration_stimuli/003069_2014-06-15_14-57-50_094959634447_rgbf000150-resize_4/003069_2014-06-15_14-57-50_094959634447_rgbf000150-resize_4-target.png,1000,4.208,1.7964356435643558,3922,1003,feet,1149535,1196883,25,Man
280,665311,DepthScenes,duration_manipulation_targetAtFixation,jsons/ah.json,http://35.173.220.167/DepthDuration/v2_depth_duration_MTurk/v2_DepthDuration_HTML.html#1,1,1150,643,1366,768,9-7-2021,14-55-22,89,depth_duration_stimuli/001059_2014-06-08_21-53-27_260595134347_rgbf000061-resize_4/001059_2014-06-08_21-53-27_260595134347_rgbf000061-resize_4-target.png,1000,2.4185,1.4970297029702964,4075,999,feet,1149535,1196883,25,Man
283,665311,DepthScenes,duration_manipulation_targetAtFixation,jsons/ah.json,http://35.173.220.167/DepthDuration/v2_depth_duration_MTurk/v2_DepthDuration_HTML.html#1,1,1150,643,1366,768,9-7-2021,14-55-22,92,depth_duration_stimuli/002340_2014-06-28_20-05-46_260595134347_rgbf000113-resize_0/002340_2014-06-28_20-05-46_260595134347_rgbf000113-resize_0-target.png,1000,2.4735,0.7485148514851482,28898,996,feet,1149535,1196883,25,Man
289,665311,DepthScenes,duration_manipulation_targetAtFixation,jsons/ah.json,http://35.173.220.167/DepthDuration/v2_depth_duration_MTurk/v2_DepthDuration_HTML.html#1,1,1150,643,1366,768,9-7-2021,14-55-22,98,depth_duration_stimuli/000457_2014-06-08_16-52-43_260595134347_rgbf000199-resize_1/000457_2014-06-08_16-52-43_260595134347_rgbf000199-resize_1-target.png,1000,3.649,1.1976237623762371,3388,1007,feet,1149535,1196883,25,Man
291,665311,DepthScenes,duration_manipulation_targetAtFixation,jsons/ah.json,http://35.173.220.167/DepthDuration/v2_depth_duration_MTurk/v2_DepthDuration_HTML.html#1,1,1150,643,1366,768,9-7-2021,14-55-22,100,depth_duration_stimuli/003546_2014-05-22_15-48-53_094959634447_rgbf004816-resize_3/003546_2014-05-22_15-48-53_094959634447_rgbf004816-resize_3-target.png,1000,2.62625,0.44910891089108895,3416,999,feet,1149535,1196883,25,Man
297,665311,DepthScenes,duration_manipulation_targetAtFixation,jsons/ah.json,http://35.173.220.167/DepthDuration/v2_depth_duration_MTurk/v2_DepthDuration_HTML.html#1,1,1150,643,1366,768,9-7-2021,14-55-22,106,depth_duration_stimuli/000943_2014-06-09_19-31-07_260595134347_rgbf000128-resize_1/000943_2014-06-09_19-31-07_260595134347_rgbf000128-resize_1-target.png,1000,1.9765,1.1976237623762371,3616,1001,feet,1149535,1196883,25,Man
300,665311,DepthScenes,duration_manipulation_targetAtFixation,jsons/ah.json,http://35.173.220.167/DepthDuration/v2_depth_duration_MTurk/v2_DepthDuration_HTML.html#1,1,1150,643,1366,768,9-7-2021,14-55-22,109,depth_duration_stimuli/000709_2014-06-08_13-51-55_260595134347_rgbf000068-resize_3/000709_2014-06-08_13-51-55_260595134347_rgbf000068-resize_3-target.png,1000,1.803,0.5988118811881186,3810,1002,feet,1149535,1196883,25,Man
306,665311,DepthScenes,duration_manipulation_targetAtFixation,jsons/ah.json,http://35.173.220.167/DepthDuration/v2_depth_duration_MTurk/v2_DepthDuration_HTML.html#1,1,1150,643,1366,768,9-7-2021,14-55-22,115,depth_duration_stimuli/002365_2014-06-28_20-11-21_260595134347_rgbf000102-resize_1/002365_2014-06-28_20-11-21_260595134347_rgbf000102-resize_1-target.png,1000,4.013,1.1976237623762371,3640,997,feet,1149535,1196883,25,Man
311,665311,DepthScenes,duration_manipulation_targetAtFixation,jsons/ah.json,http://35.173.220.167/DepthDuration/v2_depth_duration_MTurk/v2_DepthDuration_HTML.html#1,1,1150,643,1366,768,9-7-2021,14-55-22,120,depth_duration_stimuli/000677_2014-06-08_23-10-32_260595134347_rgbf000158-resize_6/000677_2014-06-08_23-10-32_260595134347_rgbf000158-resize_6-target.png,1000,3.556,1.1976237623762371,3615,996,feet,1149535,1196883,25,Man
315,665311,DepthScenes,duration_manipulation_targetAtFixation,jsons/ah.json,http://35.173.220.167/DepthDuration/v2_depth_duration_MTurk/v2_DepthDuration_HTML.html#1,1,1150,643,1366,768,9-7-2021,14-55-22,124,depth_duration_stimuli/000636_2014-06-08_16-39-02_260595134347_rgbf000108-resize_4/000636_2014-06-08_16-39-02_260595134347_rgbf000108-resize_4-target.png,1000,2.682,1.1976237623762371,3440,1006,feet,1149535,1196883,25,Man
319,665311,DepthScenes,duration_manipulation_targetAtFixation,jsons/ah.json,http://35.173.220.167/DepthDuration/v2_depth_duration_MTurk/v2_DepthDuration_HTML.html#1,1,1150,643,1366,768,9-7-2021,14-55-22,128,depth_duration_stimuli/002414_2014-06-28_20-24-58_260595134347_rgbf000067-resize_4/002414_2014-06-28_20-24-58_260595134347_rgbf000067-resize_4-target.png,1000,4.363,1.4970297029702964,5478,1001,feet,1149535,1196883,25,Man
326,665311,DepthScenes,duration_manipulation_targetAtFixation,jsons/ah.json,http://35.173.220.167/DepthDuration/v2_depth_duration_MTurk/v2_DepthDuration_HTML.html#1,1,1150,643,1366,768,9-7-2021,14-55-22,135,depth_duration_stimuli/001570_2014-06-20_17-21-09_260595134347_rgbf000135-resize_4/001570_2014-06-20_17-21-09_260595134347_rgbf000135-resize_4-target.png,1000,4.467,1.4970297029702964,3939,994,feet,1149535,1196883,25,Man
328,665311,DepthScenes,duration_manipulation_targetAtFixation,jsons/ah.json,http://35.173.220.167/DepthDuration/v2_depth_duration_MTurk/v2_DepthDuration_HTML.html#1,1,1150,643,1366,768,9-7-2021,14-55-22,137,depth_duration_stimuli/000800_2014-06-08_22-42-09_260595134347_rgbf000095-resize_3/000800_2014-06-08_22-42-09_260595134347_rgbf000095-resize_3-target.png,1000,2.8,1.7964356435643558,3487,1007,feet,1149535,1196883,25,Man
331,665311,DepthScenes,duration_manipulation_targetAtFixation,jsons/ah.json,http://35.173.220.167/DepthDuration/v2_depth_duration_MTurk/v2_DepthDuration_HTML.html#1,1,1150,643,1366,768,9-7-2021,14-55-22,140,depth_duration_stimuli/002272_2014-06-28_18-53-56_260595134347_rgbf000067-resize_2/002272_2014-06-28_18-53-56_260595134347_rgbf000067-resize_2-target.png,1000,1.138,0.44910891089108895,3427,1007,feet,1149535,1196883,25,Man
332,665311,DepthScenes,duration_manipulation_targetAtFixation,jsons/ah.json,http://35.173.220.167/DepthDuration/v2_depth_duration_MTurk/v2_DepthDuration_HTML.html#1,1,1150,643,1366,768,9-7-2021,14-55-22,141,depth_duration_stimuli/002568_2014-06-24_13-59-21_094959634447_rgbf000062-resize_4/002568_2014-06-24_13-59-21_094959634447_rgbf000062-resize_4-target.png,1000,3.015,0.8982178217821779,3209,998,feet,1149535,1196883,25,Man
337,665311,DepthScenes,duration_manipulation_targetAtFixation,jsons/ah.json,http://35.173.220.167/DepthDuration/v2_depth_duration_MTurk/v2_DepthDuration_HTML.html#1,1,1150,643,1366,768,9-7-2021,14-55-22,146,depth_duration_stimuli/000788_2014-06-08_22-34-36_260595134347_rgbf000131-resize_1/000788_2014-06-08_22-34-36_260595134347_rgbf000131-resize_1-target.png,1000,3.359,1.1976237623762371,3365,1004,feet,1149535,1196883,25,Man
338,665311,DepthScenes,duration_manipulation_targetAtFixation,jsons/ah.json,http://35.173.220.167/DepthDuration/v2_depth_duration_MTurk/v2_DepthDuration_HTML.html#1,1,1150,643,1366,768,9-7-2021,14-55-22,147,depth_duration_stimuli/002995_2014-06-15_12-31-26_094959634447_rgbf000150-resize_1/002995_2014-06-15_12-31-26_094959634447_rgbf000150-resize_1-target.png,1000,3.836,1.0479207920792075,3557,990,feet,1149535,1196883,25,Man
341,665311,DepthScenes,duration_manipulation_targetAtFixation,jsons/ah.json,http://35.173.220.167/DepthDuration/v2_depth_duration_MTurk/v2_DepthDuration_HTML.html#1,1,1150,643,1366,768,9-7-2021,14-55-22,150,depth_duration_stimuli/002725_2014-06-22_11-47-51_094959634447_rgbf000070-resize_1/002725_2014-06-22_11-47-51_094959634447_rgbf000070-resize_1-target.png,1000,2.195,1.1976237623762371,4323,1013,feet,1149535,1196883,25,Man
342,665311,DepthScenes,duration_manipulation_targetAtFixation,jsons/ah.json,http://35.173.220.167/DepthDuration/v2_depth_duration_MTurk/v2_DepthDuration_HTML.html#1,1,1150,643,1366,768,9-7-2021,14-55-22,151,depth_duration_stimuli/000773_2014-06-08_22-24-54_260595134347_rgbf000093-resize_1/000773_2014-06-08_22-24-54_260595134347_rgbf000093-resize_1-target.png,1000,4.973,1.1976237623762371,3717,989,feet,1149535,1196883,25,Man
348,665311,DepthScenes,duration_manipulation_targetAtFixation,jsons/ah.json,http://35.173.220.167/DepthDuration/v2_depth_duration_MTurk/v2_DepthDuration_HTML.html#1,1,1150,643,1366,768,9-7-2021,14-55-22,157,depth_duration_stimuli/000742_2014-06-08_18-48-09_260595134347_rgbf000164-resize_4/000742_2014-06-08_18-48-09_260595134347_rgbf000164-resize_4-target.png,1000,4.632,1.0479207920792075,4017,1005,feet,1149535,1196883,25,Man
349,665311,DepthScenes,duration_manipulation_targetAtFixation,jsons/ah.json,http://35.173.220.167/DepthDuration/v2_depth_duration_MTurk/v2_DepthDuration_HTML.html#1,1,1150,643,1366,768,9-7-2021,14-55-22,158,depth_duration_stimuli/002750_2014-06-22_19-08-03_094959634447_rgbf000094-resize_4/002750_2014-06-22_19-08-03_094959634447_rgbf000094-resize_4-target.png,1000,2.354,0.8982178217821779,3393,992,feet,1149535,1196883,25,Man
356,665311,DepthScenes,duration_manipulation_targetAtFixation,jsons/ah.json,http://35.173.220.167/DepthDuration/v2_depth_duration_MTurk/v2_DepthDuration_HTML.html#1,1,1150,643,1366,768,9-7-2021,14-55-22,165,depth_duration_stimuli/001175_2014-06-17_15-45-55_260595134347_rgbf000129-resize_4/001175_2014-06-17_15-45-55_260595134347_rgbf000129-resize_4-target.png,1000,4.255,1.3473267326732667,3617,990,feet,1149535,1196883,25,Man
358,665311,DepthScenes,duration_manipulation_targetAtFixation,jsons/ah.json,http://35.173.220.167/DepthDuration/v2_depth_duration_MTurk/v2_DepthDuration_HTML.html#1,1,1150,643,1366,768,9-7-2021,14-55-22,167,depth_duration_stimuli/002323_2014-06-28_20-01-54_260595134347_rgbf000051-resize_4/002323_2014-06-28_20-01-54_260595134347_rgbf000051-resize_4-target.png,1000,3.731,1.1976237623762371,4967,991,feet,1149535,1196883,25,Man
364,665311,DepthScenes,duration_manipulation_targetAtFixation,jsons/ah.json,http://35.173.220.167/DepthDuration/v2_depth_duration_MTurk/v2_DepthDuration_HTML.html#1,1,1150,643,1366,768,9-7-2021,14-55-22,173,depth_duration_stimuli/002545_2014-06-24_13-38-53_094959634447_rgbf000080-resize_4/002545_2014-06-24_13-38-53_094959634447_rgbf000080-resize_4-target.png,1000,1.9205,0.8982178217821779,3608,999,feet,1149535,1196883,25,Man
365,665311,DepthScenes,duration_manipulation_targetAtFixation,jsons/ah.json,http://35.173.220.167/DepthDuration/v2_depth_duration_MTurk/v2_DepthDuration_HTML.html#1,1,1150,643,1366,768,9-7-2021,14-55-22,174,depth_duration_stimuli/003070_2014-06-15_14-58-27_094959634447_rgbf000150-resize_3/003070_2014-06-15_14-58-27_094959634447_rgbf000150-resize_3-target.png,1000,2.9415,0.7485148514851482,3366,998,feet,1149535,1196883,25,Man
374,665311,DepthScenes,duration_manipulation_targetAtFixation,jsons/ah.json,http://35.173.220.167/DepthDuration/v2_depth_duration_MTurk/v2_DepthDuration_HTML.html#1,1,1150,643,1366,768,9-7-2021,14-55-22,183,depth_duration_stimuli/002949_2014-06-26_15-57-42_094959634447_rgbf000079-resize_1/002949_2014-06-26_15-57-42_094959634447_rgbf000079-resize_1-target.png,1000,1.8915,0.7485148514851482,3765,1004,feet,1149535,1196883,25,Man
377,665311,DepthScenes,duration_manipulation_targetAtFixation,jsons/ah.json,http://35.173.220.167/DepthDuration/v2_depth_duration_MTurk/v2_DepthDuration_HTML.html#1,1,1150,643,1366,768,9-7-2021,14-55-22,186,depth_duration_stimuli/000469_2014-06-09_19-42-10_260595134347_rgbf000081-resize_1/000469_2014-06-09_19-42-10_260595134347_rgbf000081-resize_1-target.png,1000,1.652,0.8982178217821779,3722,1002,feet,1149535,1196883,25,Man
386,401808,DepthScenes,duration_manipulation_targetAtFixation,jsons/al_3.json,http://35.173.220.167/DepthDuration/v2_depth_duration_MTurk/v2_DepthDuration_HTML.html#47,47,1366,768,1366,768,9-5-2021,8-5-19,3,depth_duration_stimuli/002414_2014-06-28_20-24-58_260595134347_rgbf000067-resize_4/002414_2014-06-28_20-24-58_260595134347_rgbf000067-resize_4-target.png,1000,4.363,1.790257104194857,3490,998,feet,664040,772718,36,Man
387,401808,DepthScenes,duration_manipulation_targetAtFixation,jsons/al_3.json,http://35.173.220.167/DepthDuration/v2_depth_duration_MTurk/v2_DepthDuration_HTML.html#47,47,1366,768,1366,768,9-5-2021,8-5-19,4,depth_duration_stimuli/000549_2014-06-08_22-10-24_260595134347_rgbf000247-resize_3/000549_2014-06-08_22-10-24_260595134347_rgbf000247-resize_3-target.png,1000,1.841,0.2557510148849796,4020,998,feet,664040,772718,36,Man
394,401808,DepthScenes,duration_manipulation_targetAtFixation,jsons/al_3.json,http://35.173.220.167/DepthDuration/v2_depth_duration_MTurk/v2_DepthDuration_HTML.html#47,47,1366,768,1366,768,9-5-2021,8-5-19,11,depth_duration_stimuli/002725_2014-06-22_11-47-51_094959634447_rgbf000070-resize_1/002725_2014-06-22_11-47-51_094959634447_rgbf000070-resize_1-target.png,1000,2.195,0.8951285520974285,3604,998,feet,664040,772718,36,Man
402,401808,DepthScenes,duration_manipulation_targetAtFixation,jsons/al_3.json,http://35.173.220.167/DepthDuration/v2_depth_duration_MTurk/v2_DepthDuration_HTML.html#47,47,1366,768,1366,768,9-5-2021,8-5-19,19,depth_duration_stimuli/001059_2014-06-08_21-53-27_260595134347_rgbf000061-resize_4/001059_2014-06-08_21-53-27_260595134347_rgbf000061-resize_4-target.png,1000,2.4185,1.0230040595399184,3339,998,feet,664040,772718,36,Man
404,401808,DepthScenes,duration_manipulation_targetAtFixation,jsons/al_3.json,http://35.173.220.167/DepthDuration/v2_depth_duration_MTurk/v2_DepthDuration_HTML.html#47,47,1366,768,1366,768,9-5-2021,8-5-19,21,depth_duration_stimuli/002790_2014-06-22_19-36-35_094959634447_rgbf000074-resize_4/002790_2014-06-22_19-36-35_094959634447_rgbf000074-resize_4-target.png,1000,3.512,1.2787550744248979,2976,998,feet,664040,772718,36,Man
408,401808,DepthScenes,duration_manipulation_targetAtFixation,jsons/al_3.json,http://35.173.220.167/DepthDuration/v2_depth_duration_MTurk/v2_DepthDuration_HTML.html#47,47,1366,768,1366,768,9-5-2021,8-5-19,25,depth_duration_stimuli/003092_2014-06-24_21-01-49_094959634447_rgbf000049-resize_2/003092_2014-06-24_21-01-49_094959634447_rgbf000049-resize_2-target.png,1000,1.666,0.5115020297699592,3621,991,feet,664040,772718,36,Man
411,401808,DepthScenes,duration_manipulation_targetAtFixation,jsons/al_3.json,http://35.173.220.167/DepthDuration/v2_depth_duration_MTurk/v2_DepthDuration_HTML.html#47,47,1366,768,1366,768,9-5-2021,8-5-19,28,depth_duration_stimuli/002153_2014-06-25_21-27-18_260595134347_rgbf000038-resize_5/002153_2014-06-25_21-27-18_260595134347_rgbf000038-resize_5-target.png,1000,2.505,0.7672530446549388,2944,999,feet,664040,772718,36,Man
413,401808,DepthScenes,duration_manipulation_targetAtFixation,jsons/al_3.json,http://35.173.220.167/DepthDuration/v2_depth_duration_MTurk/v2_DepthDuration_HTML.html#47,47,1366,768,1366,768,9-5-2021,8-5-19,30,depth_duration_stimuli/002131_2014-06-25_21-12-01_260595134347_rgbf000083-resize_0/002131_2014-06-25_21-12-01_260595134347_rgbf000083-resize_0-target.png,1000,1.7685,0.6393775372124489,2674,998,feet,664040,772718,36,Man
420,401808,DepthScenes,duration_manipulation_targetAtFixation,jsons/al_3.json,http://35.173.220.167/DepthDuration/v2_depth_duration_MTurk/v2_DepthDuration_HTML.html#47,47,1366,768,1366,768,9-5-2021,8-5-19,37,depth_duration_stimuli/001808_2014-06-26_20-50-58_260595134347_rgbf000029-resize_1/001808_2014-06-26_20-50-58_260595134347_rgbf000029-resize_1-target.png,1000,4.249,1.4066305818673877,4162,999,feet,664040,772718,36,Man
423,401808,DepthScenes,duration_manipulation_targetAtFixation,jsons/al_3.json,http://35.173.220.167/DepthDuration/v2_depth_duration_MTurk/v2_DepthDuration_HTML.html#47,47,1366,768,1366,768,9-5-2021,8-5-19,40,depth_duration_stimuli/000854_2014-06-09_19-43-13_260595134347_rgbf000066-resize_0/000854_2014-06-09_19-43-13_260595134347_rgbf000066-resize_0-target.png,1000,3.068,0.7672530446549388,4867,998,feet,664040,772718,36,Man
428,401808,DepthScenes,duration_manipulation_targetAtFixation,jsons/al_3.json,http://35.173.220.167/DepthDuration/v2_depth_duration_MTurk/v2_DepthDuration_HTML.html#47,47,1366,768,1366,768,9-5-2021,8-5-19,45,depth_duration_stimuli/001447_2014-06-19_17-00-32_260595134347_rgbf000082-resize_5/001447_2014-06-19_17-00-32_260595134347_rgbf000082-resize_5-target.png,1000,4.13775,1.1508795669824081,3831,997,feet,664040,772718,36,Man
436,401808,DepthScenes,duration_manipulation_targetAtFixation,jsons/al_3.json,http://35.173.220.167/DepthDuration/v2_depth_duration_MTurk/v2_DepthDuration_HTML.html#47,47,1366,768,1366,768,9-5-2021,8-5-19,53,depth_duration_stimuli/003070_2014-06-15_14-58-27_094959634447_rgbf000150-resize_3/003070_2014-06-15_14-58-27_094959634447_rgbf000150-resize_3-target.png,1000,2.9415,1.2787550744248979,3211,999,feet,664040,772718,36,Man
441,401808,DepthScenes,duration_manipulation_targetAtFixation,jsons/al_3.json,http://35.173.220.167/DepthDuration/v2_depth_duration_MTurk/v2_DepthDuration_HTML.html#47,47,1366,768,1366,768,9-5-2021,8-5-19,58,depth_duration_stimuli/000542_2014-06-08_18-27-08_260595134347_rgbf000118-resize_1/000542_2014-06-08_18-27-08_260595134347_rgbf000118-resize_1-target.png,1000,3.0,0.7672530446549388,3552,998,feet,664040,772718,36,Man
443,401808,DepthScenes,duration_manipulation_targetAtFixation,jsons/al_3.json,http://35.173.220.167/DepthDuration/v2_depth_duration_MTurk/v2_DepthDuration_HTML.html#47,47,1366,768,1366,768,9-5-2021,8-5-19,60,depth_duration_stimuli/000780_2014-06-08_22-28-29_260595134347_rgbf000126-resize_1/000780_2014-06-08_22-28-29_260595134347_rgbf000126-resize_1-target.png,1000,3.3825,0.6393775372124489,3117,999,feet,664040,772718,36,Man
448,401808,DepthScenes,duration_manipulation_targetAtFixation,jsons/al_3.json,http://35.173.220.167/DepthDuration/v2_depth_duration_MTurk/v2_DepthDuration_HTML.html#47,47,1366,768,1366,768,9-5-2021,8-5-19,65,depth_duration_stimuli/001555_2014-06-20_17-12-10_260595134347_rgbf000065-resize_4/001555_2014-06-20_17-12-10_260595134347_rgbf000065-resize_4-target.png,1000,1.633,0.2557510148849796,2880,999,feet,664040,772718,36,Man
452,401808,DepthScenes,duration_manipulation_targetAtFixation,jsons/al_3.json,http://35.173.220.167/DepthDuration/v2_depth_duration_MTurk/v2_DepthDuration_HTML.html#47,47,1366,768,1366,768,9-5-2021,8-5-19,69,depth_duration_stimuli/003048_2014-06-15_13-49-43_094959634447_rgbf000150-resize_1/003048_2014-06-15_13-49-43_094959634447_rgbf000150-resize_1-target.png,1000,4.0035,1.2787550744248979,3656,1000,feet,664040,772718,36,Man
460,401808,DepthScenes,duration_manipulation_targetAtFixation,jsons/al_3.json,http://35.173.220.167/DepthDuration/v2_depth_duration_MTurk/v2_DepthDuration_HTML.html#47,47,1366,768,1366,768,9-5-2021,8-5-19,77,depth_duration_stimuli/001158_2014-06-17_15-32-16_260595134347_rgbf000138-resize_2/001158_2014-06-17_15-32-16_260595134347_rgbf000138-resize_2-target.png,1000,4.5315,1.6623815967523672,3253,1004,feet,664040,772718,36,Man
468,401808,DepthScenes,duration_manipulation_targetAtFixation,jsons/al_3.json,http://35.173.220.167/DepthDuration/v2_depth_duration_MTurk/v2_DepthDuration_HTML.html#47,47,1366,768,1366,768,9-5-2021,8-5-19,85,depth_duration_stimuli/002758_2014-06-22_19-11-20_094959634447_rgbf000128-resize_1/002758_2014-06-22_19-11-20_094959634447_rgbf000128-resize_1-target.png,1000,2.555,0.6393775372124489,2836,999,feet,664040,772718,36,Man
469,401808,DepthScenes,duration_manipulation_targetAtFixation,jsons/al_3.json,http://35.173.220.167/DepthDuration/v2_depth_duration_MTurk/v2_DepthDuration_HTML.html#47,47,1366,768,1366,768,9-5-2021,8-5-19,86,depth_duration_stimuli/000927_2014-06-09_16-32-30_260595134347_rgbf000123-resize_3/000927_2014-06-09_16-32-30_260595134347_rgbf000123-resize_3-target.png,1000,2.6785,1.1508795669824081,4729,998,feet,664040,772718,36,Man
471,401808,DepthScenes,duration_manipulation_targetAtFixation,jsons/al_3.json,http://35.173.220.167/DepthDuration/v2_depth_duration_MTurk/v2_DepthDuration_HTML.html#47,47,1366,768,1366,768,9-5-2021,8-5-19,88,depth_duration_stimuli/001724_2014-06-26_19-28-50_260595134347_rgbf000037-resize_7/001724_2014-06-26_19-28-50_260595134347_rgbf000037-resize_7-target.png,1000,3.827,1.9181326116373467,3211,999,feet,664040,772718,36,Man
473,401808,DepthScenes,duration_manipulation_targetAtFixation,jsons/al_3.json,http://35.173.220.167/DepthDuration/v2_depth_duration_MTurk/v2_DepthDuration_HTML.html#47,47,1366,768,1366,768,9-5-2021,8-5-19,90,depth_duration_stimuli/002136_2014-06-25_21-18-03_260595134347_rgbf000109-resize_3/002136_2014-06-25_21-18-03_260595134347_rgbf000109-resize_3-target.png,1000,1.957,0.6393775372124489,2718,1000,feet,664040,772718,36,Man
477,401808,DepthScenes,duration_manipulation_targetAtFixation,jsons/al_3.json,http://35.173.220.167/DepthDuration/v2_depth_duration_MTurk/v2_DepthDuration_HTML.html#47,47,1366,768,1366,768,9-5-2021,8-5-19,94,depth_duration_stimuli/001094_2014-06-15_17-36-00_260595134347_rgbf000205-resize_0/001094_2014-06-15_17-36-00_260595134347_rgbf000205-resize_0-target.png,1000,4.2175,2.0460081190798367,3412,999,feet,664040,772718,36,Man
478,401808,DepthScenes,duration_manipulation_targetAtFixation,jsons/al_3.json,http://35.173.220.167/DepthDuration/v2_depth_duration_MTurk/v2_DepthDuration_HTML.html#47,47,1366,768,1366,768,9-5-2021,8-5-19,95,depth_duration_stimuli/002279_2014-06-28_18-55-32_260595134347_rgbf000040-resize_5/002279_2014-06-28_18-55-32_260595134347_rgbf000040-resize_5-target.png,1000,1.5043333333333,0.2557510148849796,2740,999,feet,664040,772718,36,Man
483,401808,DepthScenes,duration_manipulation_targetAtFixation,jsons/al_3.json,http://35.173.220.167/DepthDuration/v2_depth_duration_MTurk/v2_DepthDuration_HTML.html#47,47,1366,768,1366,768,9-5-2021,8-5-19,100,depth_duration_stimuli/000506_2014-06-08_23-21-00_260595134347_rgbf000070-resize_7/000506_2014-06-08_23-21-00_260595134347_rgbf000070-resize_7-target.png,1000,4.0585,1.2787550744248979,3959,999,feet,664040,772718,36,Man
494,401808,DepthScenes,duration_manipulation_targetAtFixation,jsons/al_3.json,http://35.173.220.167/DepthDuration/v2_depth_duration_MTurk/v2_DepthDuration_HTML.html#47,47,1366,768,1366,768,9-5-2021,8-5-19,111,depth_duration_stimuli/001136_2014-06-17_15-19-41_260595134347_rgbf000076-resize_3/001136_2014-06-17_15-19-41_260595134347_rgbf000076-resize_3-target.png,1000,1.8655,0.6393775372124489,2528,997,feet,664040,772718,36,Man
495,401808,DepthScenes,duration_manipulation_targetAtFixation,jsons/al_3.json,http://35.173.220.167/DepthDuration/v2_depth_duration_MTurk/v2_DepthDuration_HTML.html#47,47,1366,768,1366,768,9-5-2021,8-5-19,112,depth_duration_stimuli/002209_2014-06-28_18-36-10_260595134347_rgbf000051-resize_1/002209_2014-06-28_18-36-10_260595134347_rgbf000051-resize_1-target.png,1000,2.057,0.7672530446549388,2767,998,feet,664040,772718,36,Man
497,401808,DepthScenes,duration_manipulation_targetAtFixation,jsons/al_3.json,http://35.173.220.167/DepthDuration/v2_depth_duration_MTurk/v2_DepthDuration_HTML.html#47,47,1366,768,1366,768,9-5-2021,8-5-19,114,depth_duration_stimuli/000457_2014-06-08_16-52-43_260595134347_rgbf000199-resize_1/000457_2014-06-08_16-52-43_260595134347_rgbf000199-resize_1-target.png,1000,3.649,0.6393775372124489,4040,999,feet,664040,772718,36,Man
500,401808,DepthScenes,duration_manipulation_targetAtFixation,jsons/al_3.json,http://35.173.220.167/DepthDuration/v2_depth_duration_MTurk/v2_DepthDuration_HTML.html#47,47,1366,768,1366,768,9-5-2021,8-5-19,117,depth_duration_stimuli/000556_2014-06-09_22-42-56_260595134347_rgbf000214-resize_1/000556_2014-06-09_22-42-56_260595134347_rgbf000214-resize_1-target.png,1000,4.8415,1.5345060893098776,2696,998,feet,664040,772718,36,Man
504,401808,DepthScenes,duration_manipulation_targetAtFixation,jsons/al_3.json,http://35.173.220.167/DepthDuration/v2_depth_duration_MTurk/v2_DepthDuration_HTML.html#47,47,1366,768,1366,768,9-5-2021,8-5-19,121,depth_duration_stimuli/003492_2014-05-21_15-50-55_094959634447_rgbf000828-resize_1/003492_2014-05-21_15-50-55_094959634447_rgbf000828-resize_1-target.png,1000,4.06875,2.0460081190798367,4265,998,feet,664040,772718,36,Man
505,401808,DepthScenes,duration_manipulation_targetAtFixation,jsons/al_3.json,http://35.173.220.167/DepthDuration/v2_depth_duration_MTurk/v2_DepthDuration_HTML.html#47,47,1366,768,1366,768,9-5-2021,8-5-19,122,depth_duration_stimuli/003621_2014-05-23_18-06-08_094959634447_rgbf000101-resize_1/003621_2014-05-23_18-06-08_094959634447_rgbf000101-resize_1-target.png,1000,3.9835,1.9181326116373467,2963,998,feet,664040,772718,36,Man
510,401808,DepthScenes,duration_manipulation_targetAtFixation,jsons/al_3.json,http://35.173.220.167/DepthDuration/v2_depth_duration_MTurk/v2_DepthDuration_HTML.html#47,47,1366,768,1366,768,9-5-2021,8-5-19,127,depth_duration_stimuli/000191_2014-05-12_17-07-38_260595134347_rgbf000199-resize_0/000191_2014-05-12_17-07-38_260595134347_rgbf000199-resize_0-target.png,1000,3.7995,1.2787550744248979,3992,999,feet,664040,772718,36,Man
514,401808,DepthScenes,duration_manipulation_targetAtFixation,jsons/al_3.json,http://35.173.220.167/DepthDuration/v2_depth_duration_MTurk/v2_DepthDuration_HTML.html#47,47,1366,768,1366,768,9-5-2021,8-5-19,131,depth_duration_stimuli/002964_2014-06-08_17-46-11_094959634447_rgbf000091-resize_4/002964_2014-06-08_17-46-11_094959634447_rgbf000091-resize_4-target.png,1000,1.691,0.3836265223274694,3006,1000,feet,664040,772718,36,Man
516,401808,DepthScenes,duration_manipulation_targetAtFixation,jsons/al_3.json,http://35.173.220.167/DepthDuration/v2_depth_duration_MTurk/v2_DepthDuration_HTML.html#47,47,1366,768,1366,768,9-5-2021,8-5-19,133,depth_duration_stimuli/001188_2014-06-17_15-54-10_260595134347_rgbf000090-resize_2/001188_2014-06-17_15-54-10_260595134347_rgbf000090-resize_2-target.png,1000,2.744,1.1508795669824081,3167,998,feet,664040,772718,36,Man
517,401808,DepthScenes,duration_manipulation_targetAtFixation,jsons/al_3.json,http://35.173.220.167/DepthDuration/v2_depth_duration_MTurk/v2_DepthDuration_HTML.html#47,47,1366,768,1366,768,9-5-2021,8-5-19,134,depth_duration_stimuli/003534_2014-05-22_15-06-10_094959634447_rgbf000102-resize_4/003534_2014-05-22_15-06-10_094959634447_rgbf000102-resize_4-target.png,1000,1.426,0.3836265223274694,3257,996,feet,664040,772718,36,Man
521,401808,DepthScenes,duration_manipulation_targetAtFixation,jsons/al_3.json,http://35.173.220.167/DepthDuration/v2_depth_duration_MTurk/v2_DepthDuration_HTML.html#47,47,1366,768,1366,768,9-5-2021,8-5-19,138,depth_duration_stimuli/000929_2014-06-09_16-33-19_260595134347_rgbf000139-resize_0/000929_2014-06-09_16-33-19_260595134347_rgbf000139-resize_0-target.png,1000,2.868,0.6393775372124489,2700,1000,feet,664040,772718,36,Man
529,401808,DepthScenes,duration_manipulation_targetAtFixation,jsons/al_3.json,http://35.173.220.167/DepthDuration/v2_depth_duration_MTurk/v2_DepthDuration_HTML.html#47,47,1366,768,1366,768,9-5-2021,8-5-19,146,depth_duration_stimuli/000483_2014-06-09_20-41-45_260595134347_rgbf000116-resize_4/000483_2014-06-09_20-41-45_260595134347_rgbf000116-resize_4-target.png,1000,1.337,0.2557510148849796,2717,1001,feet,664040,772718,36,Man
531,401808,DepthScenes,duration_manipulation_targetAtFixation,jsons/al_3.json,http://35.173.220.167/DepthDuration/v2_depth_duration_MTurk/v2_DepthDuration_HTML.html#47,47,1366,768,1366,768,9-5-2021,8-5-19,148,depth_duration_stimuli/000866_2014-06-09_20-45-42_260595134347_rgbf000139-resize_1/000866_2014-06-09_20-45-42_260595134347_rgbf000139-resize_1-target.png,1000,3.2155,0.8951285520974285,2916,982,feet,664040,772718,36,Man
535,401808,DepthScenes,duration_manipulation_targetAtFixation,jsons/al_3.json,http://35.173.220.167/DepthDuration/v2_depth_duration_MTurk/v2_DepthDuration_HTML.html#47,47,1366,768,1366,768,9-5-2021,8-5-19,152,depth_duration_stimuli/000103_2014-05-14_22-01-17_260595134347_rgbf000152-resize_5/000103_2014-05-14_22-01-17_260595134347_rgbf000152-resize_5-target.png,1000,1.993,1.0230040595399184,3379,1000,feet,664040,772718,36,Man
536,401808,DepthScenes,duration_manipulation_targetAtFixation,jsons/al_3.json,http://35.173.220.167/DepthDuration/v2_depth_duration_MTurk/v2_DepthDuration_HTML.html#47,47,1366,768,1366,768,9-5-2021,8-5-19,153,depth_duration_stimuli/001810_2014-06-26_20-51-35_260595134347_rgbf000040-resize_3/001810_2014-06-26_20-51-35_260595134347_rgbf000040-resize_3-target.png,1000,2.2525,0.6393775372124489,3118,997,feet,664040,772718,36,Man
547,401808,DepthScenes,duration_manipulation_targetAtFixation,jsons/al_3.json,http://35.173.220.167/DepthDuration/v2_depth_duration_MTurk/v2_DepthDuration_HTML.html#47,47,1366,768,1366,768,9-5-2021,8-5-19,164,depth_duration_stimuli/002663_2014-06-13_15-50-26_094959634447_rgbf000075-resize_1/002663_2014-06-13_15-50-26_094959634447_rgbf000075-resize_1-target.png,1000,4.7495,1.790257104194857,3003,997,feet,664040,772718,36,Man
548,401808,DepthScenes,duration_manipulation_targetAtFixation,jsons/al_3.json,http://35.173.220.167/DepthDuration/v2_depth_duration_MTurk/v2_DepthDuration_HTML.html#47,47,1366,768,1366,768,9-5-2021,8-5-19,165,depth_duration_stimuli/001650_2014-06-20_12-09-00_260595134347_rgbf000087-resize_3/001650_2014-06-20_12-09-00_260595134347_rgbf000087-resize_3-target.png,1000,1.9505,0.3836265223274694,3361,999,feet,664040,772718,36,Man
563,401808,DepthScenes,duration_manipulation_targetAtFixation,jsons/al_3.json,http://35.173.220.167/DepthDuration/v2_depth_duration_MTurk/v2_DepthDuration_HTML.html#47,47,1366,768,1366,768,9-5-2021,8-5-19,180,depth_duration_stimuli/001181_2014-06-17_15-50-57_260595134347_rgbf000106-resize_4/001181_2014-06-17_15-50-57_260595134347_rgbf000106-resize_4-target.png,1000,4.149,1.5345060893098776,4103,999,feet,664040,772718,36,Man
564,401808,DepthScenes,duration_manipulation_targetAtFixation,jsons/al_3.json,http://35.173.220.167/DepthDuration/v2_depth_duration_MTurk/v2_DepthDuration_HTML.html#47,47,1366,768,1366,768,9-5-2021,8-5-19,181,depth_duration_stimuli/000788_2014-06-08_22-34-36_260595134347_rgbf000131-resize_1/000788_2014-06-08_22-34-36_260595134347_rgbf000131-resize_1-target.png,1000,3.359,0.8951285520974285,3170,998,feet,664040,772718,36,Man
565,401808,DepthScenes,duration_manipulation_targetAtFixation,jsons/al_3.json,http://35.173.220.167/DepthDuration/v2_depth_duration_MTurk/v2_DepthDuration_HTML.html#47,47,1366,768,1366,768,9-5-2021,8-5-19,182,depth_duration_stimuli/001164_2014-06-17_15-35-46_260595134347_rgbf000085-resize_3/001164_2014-06-17_15-35-46_260595134347_rgbf000085-resize_3-target.png,1000,2.354,0.7672530446549388,2702,982,feet,664040,772718,36,Man
568,401808,DepthScenes,duration_manipulation_targetAtFixation,jsons/al_3.json,http://35.173.220.167/DepthDuration/v2_depth_duration_MTurk/v2_DepthDuration_HTML.html#47,47,1366,768,1366,768,9-5-2021,8-5-19,185,depth_duration_stimuli/002987_2014-06-08_18-48-20_094959634447_rgbf000022-resize_0/002987_2014-06-08_18-48-20_094959634447_rgbf000022-resize_0-target.png,1000,2.6775,1.1508795669824081,3300,999,feet,664040,772718,36,Man
572,401808,DepthScenes,duration_manipulation_targetAtFixation,jsons/al_3.json,http://35.173.220.167/DepthDuration/v2_depth_duration_MTurk/v2_DepthDuration_HTML.html#47,47,1366,768,1366,768,9-5-2021,8-5-19,189,depth_duration_stimuli/002305_2014-06-28_19-56-50_260595134347_rgbf000102-resize_7/002305_2014-06-28_19-56-50_260595134347_rgbf000102-resize_7-target.png,1000,4.8725,1.5345060893098776,2870,998,feet,664040,772718,36,Man
574,401808,DepthScenes,duration_manipulation_targetAtFixation,jsons/al_3.json,http://35.173.220.167/DepthDuration/v2_depth_duration_MTurk/v2_DepthDuration_HTML.html#47,47,1366,768,1366,768,9-5-2021,8-5-19,191,depth_duration_stimuli/002323_2014-06-28_20-01-54_260595134347_rgbf000051-resize_4/002323_2014-06-28_20-01-54_260595134347_rgbf000051-resize_4-target.png,1000,3.731,1.4066305818673877,3536,999,feet,664040,772718,36,Man
578,811430,DepthScenes,duration_manipulation_targetAtFixation,jsons/af.json,http://34.238.49.31/DepthDuration/v2_depth_duration_MTurk/v2_DepthDuration_HTML.html#17,17,1571,864,1920,1080,9-19-2021,8-12-58,3,depth_duration_stimuli/000878_2014-06-08_22-52-45_260595134347_rgbf000045-resize_2/000878_2014-06-08_22-52-45_260595134347_rgbf000045-resize_2-target.png,1000,2.092,0.8192771084337347,2414,1000,feet,690249,782584,26,Woman
582,811430,DepthScenes,duration_manipulation_targetAtFixation,jsons/af.json,http://34.238.49.31/DepthDuration/v2_depth_duration_MTurk/v2_DepthDuration_HTML.html#17,17,1571,864,1920,1080,9-19-2021,8-12-58,7,depth_duration_stimuli/001100_2014-06-15_17-46-26_260595134347_rgbf000225-resize_2/001100_2014-06-15_17-46-26_260595134347_rgbf000225-resize_2-target.png,1000,2.24,0.40963855421686735,2483,1000,feet,690249,782584,26,Woman
583,811430,DepthScenes,duration_manipulation_targetAtFixation,jsons/af.json,http://34.238.49.31/DepthDuration/v2_depth_duration_MTurk/v2_DepthDuration_HTML.html#17,17,1571,864,1920,1080,9-19-2021,8-12-58,8,depth_duration_stimuli/002344_2014-06-28_20-06-29_260595134347_rgbf000030-resize_1/002344_2014-06-28_20-06-29_260595134347_rgbf000030-resize_1-target.png,1000,1.5795,0.40963855421686735,2703,998,feet,690249,782584,26,Woman
585,811430,DepthScenes,duration_manipulation_targetAtFixation,jsons/af.json,http://34.238.49.31/DepthDuration/v2_depth_duration_MTurk/v2_DepthDuration_HTML.html#17,17,1571,864,1920,1080,9-19-2021,8-12-58,10,depth_duration_stimuli/000780_2014-06-08_22-28-29_260595134347_rgbf000126-resize_1/000780_2014-06-08_22-28-29_260595134347_rgbf000126-resize_1-target.png,1000,3.3825,1.2289156626506021,2735,988,feet,690249,782584,26,Woman
587,811430,DepthScenes,duration_manipulation_targetAtFixation,jsons/af.json,http://34.238.49.31/DepthDuration/v2_depth_duration_MTurk/v2_DepthDuration_HTML.html#17,17,1571,864,1920,1080,9-19-2021,8-12-58,12,depth_duration_stimuli/001584_2014-06-20_11-07-43_260595134347_rgbf000002-resize_1/001584_2014-06-20_11-07-43_260595134347_rgbf000002-resize_1-target.png,1000,3.53,1.4337349397590355,2509,999,feet,690249,782584,26,Woman
596,811430,DepthScenes,duration_manipulation_targetAtFixation,jsons/af.json,http://34.238.49.31/DepthDuration/v2_depth_duration_MTurk/v2_DepthDuration_HTML.html#17,17,1571,864,1920,1080,9-19-2021,8-12-58,21,depth_duration_stimuli/001059_2014-06-08_21-53-27_260595134347_rgbf000061-resize_4/001059_2014-06-08_21-53-27_260595134347_rgbf000061-resize_4-target.png,1000,2.4185,0.8192771084337347,2398,1001,feet,690249,782584,26,Woman
605,811430,DepthScenes,duration_manipulation_targetAtFixation,jsons/af.json,http://34.238.49.31/DepthDuration/v2_depth_duration_MTurk/v2_DepthDuration_HTML.html#17,17,1571,864,1920,1080,9-19-2021,8-12-58,30,depth_duration_stimuli/001447_2014-06-19_17-00-32_260595134347_rgbf000082-resize_5/001447_2014-06-19_17-00-32_260595134347_rgbf000082-resize_5-target.png,1000,4.13775,1.2289156626506021,3247,1000,feet,690249,782584,26,Woman
608,811430,DepthScenes,duration_manipulation_targetAtFixation,jsons/af.json,http://34.238.49.31/DepthDuration/v2_depth_duration_MTurk/v2_DepthDuration_HTML.html#17,17,1571,864,1920,1080,9-19-2021,8-12-58,33,depth_duration_stimuli/002663_2014-06-13_15-50-26_094959634447_rgbf000075-resize_1/002663_2014-06-13_15-50-26_094959634447_rgbf000075-resize_1-target.png,1000,4.7495,1.8433734939759032,2769,1005,feet,690249,782584,26,Woman
611,811430,DepthScenes,duration_manipulation_targetAtFixation,jsons/af.json,http://34.238.49.31/DepthDuration/v2_depth_duration_MTurk/v2_DepthDuration_HTML.html#17,17,1571,864,1920,1080,9-19-2021,8-12-58,36,depth_duration_stimuli/000409_2014-06-04_19-23-33_260595134347_rgbf000067-resize_0/000409_2014-06-04_19-23-33_260595134347_rgbf000067-resize_0-target.png,1000,3.7335,1.0240963855421683,2865,1000,feet,690249,782584,26,Woman
613,811430,DepthScenes,duration_manipulation_targetAtFixation,jsons/af.json,http://34.238.49.31/DepthDuration/v2_depth_duration_MTurk/v2_DepthDuration_HTML.html#17,17,1571,864,1920,1080,9-19-2021,8-12-58,38,depth_duration_stimuli/002657_2014-06-13_15-29-54_094959634447_rgbf000150-resize_1/002657_2014-06-13_15-29-54_094959634447_rgbf000150-resize_1-target.png,1000,4.919,1.4337349397590355,3390,1001,feet,690249,782584,26,Woman
616,811430,DepthScenes,duration_manipulation_targetAtFixation,jsons/af.json,http://34.238.49.31/DepthDuration/v2_depth_duration_MTurk/v2_DepthDuration_HTML.html#17,17,1571,864,1920,1080,9-19-2021,8-12-58,41,depth_duration_stimuli/003228_2014-05-14_13-42-35_094959634447_rgbf000101-resize_1/003228_2014-05-14_13-42-35_094959634447_rgbf000101-resize_1-target.png,1000,1.968,0.40963855421686735,2642,999,feet,690249,782584,26,Woman
620,811430,DepthScenes,duration_manipulation_targetAtFixation,jsons/af.json,http://34.238.49.31/DepthDuration/v2_depth_duration_MTurk/v2_DepthDuration_HTML.html#17,17,1571,864,1920,1080,9-19-2021,8-12-58,45,depth_duration_stimuli/001650_2014-06-20_12-09-00_260595134347_rgbf000087-resize_3/001650_2014-06-20_12-09-00_260595134347_rgbf000087-resize_3-target.png,1000,1.9505,0.20481927710843367,2691,1000,feet,690249,782584,26,Woman
634,811430,DepthScenes,duration_manipulation_targetAtFixation,jsons/af.json,http://34.238.49.31/DepthDuration/v2_depth_duration_MTurk/v2_DepthDuration_HTML.html#17,17,1571,864,1920,1080,9-19-2021,8-12-58,59,depth_duration_stimuli/002445_2014-06-28_20-32-16_260595134347_rgbf000029-resize_4/002445_2014-06-28_20-32-16_260595134347_rgbf000029-resize_4-target.png,1000,2.5315,0.6144578313253011,3360,999,feet,690249,782584,26,Woman
641,811430,DepthScenes,duration_manipulation_targetAtFixation,jsons/af.json,http://34.238.49.31/DepthDuration/v2_depth_duration_MTurk/v2_DepthDuration_HTML.html#17,17,1571,864,1920,1080,9-19-2021,8-12-58,66,depth_duration_stimuli/002989_2014-06-15_12-25-03_094959634447_rgbf000150-resize_3/002989_2014-06-15_12-25-03_094959634447_rgbf000150-resize_3-target.png,1000,4.1975,1.6385542168674694,4323,1001,feet,690249,782584,26,Woman
642,811430,DepthScenes,duration_manipulation_targetAtFixation,jsons/af.json,http://34.238.49.31/DepthDuration/v2_depth_duration_MTurk/v2_DepthDuration_HTML.html#17,17,1571,864,1920,1080,9-19-2021,8-12-58,67,depth_duration_stimuli/002905_2014-06-03_18-04-43_094959634447_rgbf000151-resize_2/002905_2014-06-03_18-04-43_094959634447_rgbf000151-resize_2-target.png,1000,2.0295,0.6144578313253011,2470,1007,feet,690249,782584,26,Woman
644,811430,DepthScenes,duration_manipulation_targetAtFixation,jsons/af.json,http://34.238.49.31/DepthDuration/v2_depth_duration_MTurk/v2_DepthDuration_HTML.html#17,17,1571,864,1920,1080,9-19-2021,8-12-58,69,depth_duration_stimuli/002784_2014-06-22_19-26-30_094959634447_rgbf000083-resize_3/002784_2014-06-22_19-26-30_094959634447_rgbf000083-resize_3-target.png,1000,1.8046666666667,0.40963855421686735,2391,1001,feet,690249,782584,26,Woman
645,811430,DepthScenes,duration_manipulation_targetAtFixation,jsons/af.json,http://34.238.49.31/DepthDuration/v2_depth_duration_MTurk/v2_DepthDuration_HTML.html#17,17,1571,864,1920,1080,9-19-2021,8-12-58,70,depth_duration_stimuli/002279_2014-06-28_18-55-32_260595134347_rgbf000040-resize_5/002279_2014-06-28_18-55-32_260595134347_rgbf000040-resize_5-target.png,1000,1.5043333333333,0.40963855421686735,2317,999,feet,690249,782584,26,Woman
647,811430,DepthScenes,duration_manipulation_targetAtFixation,jsons/af.json,http://34.238.49.31/DepthDuration/v2_depth_duration_MTurk/v2_DepthDuration_HTML.html#17,17,1571,864,1920,1080,9-19-2021,8-12-58,72,depth_duration_stimuli/000505_2014-06-08_23-03-23_260595134347_rgbf000091-resize_0/000505_2014-06-08_23-03-23_260595134347_rgbf000091-resize_0-target.png,1000,3.3105,0.40963855421686735,2482,1005,feet,690249,782584,26,Woman
649,811430,DepthScenes,duration_manipulation_targetAtFixation,jsons/af.json,http://34.238.49.31/DepthDuration/v2_depth_duration_MTurk/v2_DepthDuration_HTML.html#17,17,1571,864,1920,1080,9-19-2021,8-12-58,74,depth_duration_stimuli/000506_2014-06-08_23-21-00_260595134347_rgbf000070-resize_7/000506_2014-06-08_23-21-00_260595134347_rgbf000070-resize_7-target.png,1000,4.0585,0.8192771084337347,2968,1000,feet,690249,782584,26,Woman
655,811430,DepthScenes,duration_manipulation_targetAtFixation,jsons/af.json,http://34.238.49.31/DepthDuration/v2_depth_duration_MTurk/v2_DepthDuration_HTML.html#17,17,1571,864,1920,1080,9-19-2021,8-12-58,80,depth_duration_stimuli/002790_2014-06-22_19-36-35_094959634447_rgbf000074-resize_4/002790_2014-06-22_19-36-35_094959634447_rgbf000074-resize_4-target.png,1000,3.512,1.2289156626506021,2813,1000,feet,690249,782584,26,Woman
656,811430,DepthScenes,duration_manipulation_targetAtFixation,jsons/af.json,http://34.238.49.31/DepthDuration/v2_depth_duration_MTurk/v2_DepthDuration_HTML.html#17,17,1571,864,1920,1080,9-19-2021,8-12-58,81,depth_duration_stimuli/002464_2014-06-28_20-36-57_260595134347_rgbf000029-resize_0/002464_2014-06-28_20-36-57_260595134347_rgbf000029-resize_0-target.png,1000,3.9525,1.2289156626506021,2575,999,feet,690249,782584,26,Woman
662,811430,DepthScenes,duration_manipulation_targetAtFixation,jsons/af.json,http://34.238.49.31/DepthDuration/v2_depth_duration_MTurk/v2_DepthDuration_HTML.html#17,17,1571,864,1920,1080,9-19-2021,8-12-58,87,depth_duration_stimuli/001016_2014-06-09_16-16-10_260595134347_rgbf000112-resize_5/001016_2014-06-09_16-16-10_260595134347_rgbf000112-resize_5-target.png,1000,1.6565,0.6144578313253011,3316,999,feet,690249,782584,26,Woman
663,811430,DepthScenes,duration_manipulation_targetAtFixation,jsons/af.json,http://34.238.49.31/DepthDuration/v2_depth_duration_MTurk/v2_DepthDuration_HTML.html#17,17,1571,864,1920,1080,9-19-2021,8-12-58,88,depth_duration_stimuli/001264_2014-06-16_16-10-23_260595134347_rgbf000109-resize_1/001264_2014-06-16_16-10-23_260595134347_rgbf000109-resize_1-target.png,1000,2.9665,0.8192771084337347,3353,1000,feet,690249,782584,26,Woman
668,811430,DepthScenes,duration_manipulation_targetAtFixation,jsons/af.json,http://34.238.49.31/DepthDuration/v2_depth_duration_MTurk/v2_DepthDuration_HTML.html#17,17,1571,864,1920,1080,9-19-2021,8-12-58,93,depth_duration_stimuli/002375_2014-06-28_20-13-44_260595134347_rgbf000032-resize_1/002375_2014-06-28_20-13-44_260595134347_rgbf000032-resize_1-target.png,1000,4.0175,1.0240963855421683,2661,1000,feet,690249,782584,26,Woman
680,811430,DepthScenes,duration_manipulation_targetAtFixation,jsons/af.json,http://34.238.49.31/DepthDuration/v2_depth_duration_MTurk/v2_DepthDuration_HTML.html#17,17,1571,864,1920,1080,9-19-2021,8-12-58,105,depth_duration_stimuli/000740_2014-06-08_18-46-23_260595134347_rgbf000049-resize_6/000740_2014-06-08_18-46-23_260595134347_rgbf000049-resize_6-target.png,1000,1.687,0.6144578313253011,2920,999,feet,690249,782584,26,Woman
685,811430,DepthScenes,duration_manipulation_targetAtFixation,jsons/af.json,http://34.238.49.31/DepthDuration/v2_depth_duration_MTurk/v2_DepthDuration_HTML.html#17,17,1571,864,1920,1080,9-19-2021,8-12-58,110,depth_duration_stimuli/000556_2014-06-09_22-42-56_260595134347_rgbf000214-resize_1/000556_2014-06-09_22-42-56_260595134347_rgbf000214-resize_1-target.png,1000,4.8415,1.0240963855421683,3098,998,feet,690249,782584,26,Woman
686,811430,DepthScenes,duration_manipulation_targetAtFixation,jsons/af.json,http://34.238.49.31/DepthDuration/v2_depth_duration_MTurk/v2_DepthDuration_HTML.html#17,17,1571,864,1920,1080,9-19-2021,8-12-58,111,depth_duration_stimuli/000447_2014-06-08_16-15-46_260595134347_rgbf000130-resize_1/000447_2014-06-08_16-15-46_260595134347_rgbf000130-resize_1-target.png,1000,4.479,1.4337349397590355,2553,1000,feet,690249,782584,26,Woman
688,811430,DepthScenes,duration_manipulation_targetAtFixation,jsons/af.json,http://34.238.49.31/DepthDuration/v2_depth_duration_MTurk/v2_DepthDuration_HTML.html#17,17,1571,864,1920,1080,9-19-2021,8-12-58,113,depth_duration_stimuli/000109_2014-05-14_23-41-52_260595134347_rgbf000035-resize_9/000109_2014-05-14_23-41-52_260595134347_rgbf000035-resize_9-target.png,1000,1.3545,0.40963855421686735,2738,996,feet,690249,782584,26,Woman
690,811430,DepthScenes,duration_manipulation_targetAtFixation,jsons/af.json,http://34.238.49.31/DepthDuration/v2_depth_duration_MTurk/v2_DepthDuration_HTML.html#17,17,1571,864,1920,1080,9-19-2021,8-12-58,115,depth_duration_stimuli/002444_2014-06-28_20-32-08_260595134347_rgbf000027-resize_0/002444_2014-06-28_20-32-08_260595134347_rgbf000027-resize_0-target.png,1000,4.389,0.8192771084337347,2669,1000,feet,690249,782584,26,Woman
699,811430,DepthScenes,duration_manipulation_targetAtFixation,jsons/af.json,http://34.238.49.31/DepthDuration/v2_depth_duration_MTurk/v2_DepthDuration_HTML.html#17,17,1571,864,1920,1080,9-19-2021,8-12-58,124,depth_duration_stimuli/000009_2014-05-26_14-32-05_260595134347_rgbf000034-resize_3/000009_2014-05-26_14-32-05_260595134347_rgbf000034-resize_3-target.png,1000,3.8715,1.6385542168674694,3576,1000,feet,690249,782584,26,Woman
705,811430,DepthScenes,duration_manipulation_targetAtFixation,jsons/af.json,http://34.238.49.31/DepthDuration/v2_depth_duration_MTurk/v2_DepthDuration_HTML.html#17,17,1571,864,1920,1080,9-19-2021,8-12-58,130,depth_duration_stimuli/000368_2014-06-09_15-53-01_260595134347_rgbf000155-resize_2/000368_2014-06-09_15-53-01_260595134347_rgbf000155-resize_2-target.png,1000,2.486,0.40963855421686735,2216,1004,feet,690249,782584,26,Woman
714,811430,DepthScenes,duration_manipulation_targetAtFixation,jsons/af.json,http://34.238.49.31/DepthDuration/v2_depth_duration_MTurk/v2_DepthDuration_HTML.html#17,17,1571,864,1920,1080,9-19-2021,8-12-58,139,depth_duration_stimuli/000927_2014-06-09_16-32-30_260595134347_rgbf000123-resize_3/000927_2014-06-09_16-32-30_260595134347_rgbf000123-resize_3-target.png,1000,2.6785,1.0240963855421683,2814,996,feet,690249,782584,26,Woman
716,811430,DepthScenes,duration_manipulation_targetAtFixation,jsons/af.json,http://34.238.49.31/DepthDuration/v2_depth_duration_MTurk/v2_DepthDuration_HTML.html#17,17,1571,864,1920,1080,9-19-2021,8-12-58,141,depth_duration_stimuli/002630_2014-06-24_14-47-50_094959634447_rgbf000055-resize_1/002630_2014-06-24_14-47-50_094959634447_rgbf000055-resize_1-target.png,1000,3.0095,1.4337349397590355,2619,990,feet,690249,782584,26,Woman
717,811430,DepthScenes,duration_manipulation_targetAtFixation,jsons/af.json,http://34.238.49.31/DepthDuration/v2_depth_duration_MTurk/v2_DepthDuration_HTML.html#17,17,1571,864,1920,1080,9-19-2021,8-12-58,142,depth_duration_stimuli/003010_2014-06-15_12-54-35_094959634447_rgbf000112-resize_0/003010_2014-06-15_12-54-35_094959634447_rgbf000112-resize_0-target.png,1000,3.1185,1.4337349397590355,2838,999,feet,690249,782584,26,Woman
719,811430,DepthScenes,duration_manipulation_targetAtFixation,jsons/af.json,http://34.238.49.31/DepthDuration/v2_depth_duration_MTurk/v2_DepthDuration_HTML.html#17,17,1571,864,1920,1080,9-19-2021,8-12-58,144,depth_duration_stimuli/002600_2014-06-24_14-27-04_094959634447_rgbf000074-resize_2/002600_2014-06-24_14-27-04_094959634447_rgbf000074-resize_2-target.png,1000,2.7575,0.8192771084337347,3229,1000,feet,690249,782584,26,Woman
724,811430,DepthScenes,duration_manipulation_targetAtFixation,jsons/af.json,http://34.238.49.31/DepthDuration/v2_depth_duration_MTurk/v2_DepthDuration_HTML.html#17,17,1571,864,1920,1080,9-19-2021,8-12-58,149,depth_duration_stimuli/002949_2014-06-26_15-57-42_094959634447_rgbf000079-resize_1/002949_2014-06-26_15-57-42_094959634447_rgbf000079-resize_1-target.png,1000,1.8915,0.40963855421686735,2526,990,feet,690249,782584,26,Woman
728,811430,DepthScenes,duration_manipulation_targetAtFixation,jsons/af.json,http://34.238.49.31/DepthDuration/v2_depth_duration_MTurk/v2_DepthDuration_HTML.html#17,17,1571,864,1920,1080,9-19-2021,8-12-58,153,depth_duration_stimuli/000749_2014-06-08_21-55-06_260595134347_rgbf000070-resize_2/000749_2014-06-08_21-55-06_260595134347_rgbf000070-resize_2-target.png,1000,2.331,0.6144578313253011,2630,999,feet,690249,782584,26,Woman
733,811430,DepthScenes,duration_manipulation_targetAtFixation,jsons/af.json,http://34.238.49.31/DepthDuration/v2_depth_duration_MTurk/v2_DepthDuration_HTML.html#17,17,1571,864,1920,1080,9-19-2021,8-12-58,158,depth_duration_stimuli/000691_2014-06-08_13-08-50_260595134347_rgbf000132-resize_3/000691_2014-06-08_13-08-50_260595134347_rgbf000132-resize_3-target.png,1000,4.153,1.2289156626506021,3423,1001,feet,690249,782584,26,Woman
734,811430,DepthScenes,duration_manipulation_targetAtFixation,jsons/af.json,http://34.238.49.31/DepthDuration/v2_depth_duration_MTurk/v2_DepthDuration_HTML.html#17,17,1571,864,1920,1080,9-19-2021,8-12-58,159,depth_duration_stimuli/001052_2014-06-08_18-24-54_260595134347_rgbf000130-resize_1/001052_2014-06-08_18-24-54_260595134347_rgbf000130-resize_1-target.png,1000,4.1045,1.4337349397590355,2736,1001,feet,690249,782584,26,Woman
735,811430,DepthScenes,duration_manipulation_targetAtFixation,jsons/af.json,http://34.238.49.31/DepthDuration/v2_depth_duration_MTurk/v2_DepthDuration_HTML.html#17,17,1571,864,1920,1080,9-19-2021,8-12-58,160,depth_duration_stimuli/000137_2014-05-20_17-04-49_260595134347_rgbf000120-resize_1/000137_2014-05-20_17-04-49_260595134347_rgbf000120-resize_1-target.png,1000,3.786,1.4337349397590355,2598,999,feet,690249,782584,26,Woman
739,811430,DepthScenes,duration_manipulation_targetAtFixation,jsons/af.json,http://34.238.49.31/DepthDuration/v2_depth_duration_MTurk/v2_DepthDuration_HTML.html#17,17,1571,864,1920,1080,9-19-2021,8-12-58,164,depth_duration_stimuli/002549_2014-06-24_13-41-39_094959634447_rgbf000022-resize_3/002549_2014-06-24_13-41-39_094959634447_rgbf000022-resize_3-target.png,1000,1.476,0.40963855421686735,3815,1001,feet,690249,782584,26,Woman
743,811430,DepthScenes,duration_manipulation_targetAtFixation,jsons/af.json,http://34.238.49.31/DepthDuration/v2_depth_duration_MTurk/v2_DepthDuration_HTML.html#17,17,1571,864,1920,1080,9-19-2021,8-12-58,168,depth_duration_stimuli/001175_2014-06-17_15-45-55_260595134347_rgbf000129-resize_4/001175_2014-06-17_15-45-55_260595134347_rgbf000129-resize_4-target.png,1000,4.255,1.6385542168674694,2809,998,feet,690249,782584,26,Woman
744,811430,DepthScenes,duration_manipulation_targetAtFixation,jsons/af.json,http://34.238.49.31/DepthDuration/v2_depth_duration_MTurk/v2_DepthDuration_HTML.html#17,17,1571,864,1920,1080,9-19-2021,8-12-58,169,depth_duration_stimuli/003079_2014-06-15_15-18-20_094959634447_rgbf000152-resize_8/003079_2014-06-15_15-18-20_094959634447_rgbf000152-resize_8-target.png,1000,2.8775,1.0240963855421683,3223,991,feet,690249,782584,26,Woman
750,811430,DepthScenes,duration_manipulation_targetAtFixation,jsons/af.json,http://34.238.49.31/DepthDuration/v2_depth_duration_MTurk/v2_DepthDuration_HTML.html#17,17,1571,864,1920,1080,9-19-2021,8-12-58,175,depth_duration_stimuli/002118_2014-06-25_20-32-08_260595134347_rgbf000078-resize_1/002118_2014-06-25_20-32-08_260595134347_rgbf000078-resize_1-target.png,1000,2.646,0.8192771084337347,2421,998,feet,690249,782584,26,Woman
756,811430,DepthScenes,duration_manipulation_targetAtFixation,jsons/af.json,http://34.238.49.31/DepthDuration/v2_depth_duration_MTurk/v2_DepthDuration_HTML.html#17,17,1571,864,1920,1080,9-19-2021,8-12-58,181,depth_duration_stimuli/002213_2014-06-28_18-37-58_260595134347_rgbf000055-resize_1/002213_2014-06-28_18-37-58_260595134347_rgbf000055-resize_1-target.png,1000,3.62,1.4337349397590355,3017,1001,feet,690249,782584,26,Woman
758,811430,DepthScenes,duration_manipulation_targetAtFixation,jsons/af.json,http://34.238.49.31/DepthDuration/v2_depth_duration_MTurk/v2_DepthDuration_HTML.html#17,17,1571,864,1920,1080,9-19-2021,8-12-58,183,depth_duration_stimuli/002805_2014-06-22_19-54-03_094959634447_rgbf000079-resize_1/002805_2014-06-22_19-54-03_094959634447_rgbf000079-resize_1-target.png,1000,3.144,1.4337349397590355,2736,1000,feet,690249,782584,26,Woman
775,614349,DepthScenes,duration_manipulation_targetAtFixation,jsons/ah_2.json,http://35.173.220.167/DepthDuration/v2_depth_duration_MTurk/v2_DepthDuration_HTML.html#30,30,1440,757,1440,900,9-5-2021,5-56-48,8,depth_duration_stimuli/002139_2014-06-25_21-19-37_260595134347_rgbf000124-resize_2/002139_2014-06-25_21-19-37_260595134347_rgbf000124-resize_2-target.png,1000,2.107,0.4897852278679935,4279,1001,feet,1021300,1244325,55,Man
776,614349,DepthScenes,duration_manipulation_targetAtFixation,jsons/ah_2.json,http://35.173.220.167/DepthDuration/v2_depth_duration_MTurk/v2_DepthDuration_HTML.html#30,30,1440,757,1440,900,9-5-2021,5-56-48,9,depth_duration_stimuli/001148_2014-06-17_15-26-42_260595134347_rgbf000129-resize_0/001148_2014-06-17_15-26-42_260595134347_rgbf000129-resize_0-target.png,1000,4.368,0.979570455735987,4640,1005,feet,1021300,1244325,55,Man
777,614349,DepthScenes,duration_manipulation_targetAtFixation,jsons/ah_2.json,http://35.173.220.167/DepthDuration/v2_depth_duration_MTurk/v2_DepthDuration_HTML.html#30,30,1440,757,1440,900,9-5-2021,5-56-48,10,depth_duration_stimuli/003083_2014-06-15_15-21-03_094959634447_rgbf000063-resize_1/003083_2014-06-15_15-21-03_094959634447_rgbf000063-resize_1-target.png,1000,4.1405,1.1754845468831845,5529,997,feet,1021300,1244325,55,Man
780,614349,DepthScenes,duration_manipulation_targetAtFixation,jsons/ah_2.json,http://35.173.220.167/DepthDuration/v2_depth_duration_MTurk/v2_DepthDuration_HTML.html#30,30,1440,757,1440,900,9-5-2021,5-56-48,13,depth_duration_stimuli/001164_2014-06-17_15-35-46_260595134347_rgbf000085-resize_3/001164_2014-06-17_15-35-46_260595134347_rgbf000085-resize_3-target.png,1000,2.354,0.5877422734415922,3243,1003,feet,1021300,1244325,55,Man
782,614349,DepthScenes,duration_manipulation_targetAtFixation,jsons/ah_2.json,http://35.173.220.167/DepthDuration/v2_depth_duration_MTurk/v2_DepthDuration_HTML.html#30,30,1440,757,1440,900,9-5-2021,5-56-48,15,depth_duration_stimuli/002987_2014-06-08_18-48-20_094959634447_rgbf000022-resize_0/002987_2014-06-08_18-48-20_094959634447_rgbf000022-resize_0-target.png,1000,2.6775,0.7836563645887896,6189,1008,feet,1021300,1244325,55,Man
785,614349,DepthScenes,duration_manipulation_targetAtFixation,jsons/ah_2.json,http://35.173.220.167/DepthDuration/v2_depth_duration_MTurk/v2_DepthDuration_HTML.html#30,30,1440,757,1440,900,9-5-2021,5-56-48,18,depth_duration_stimuli/000866_2014-06-09_20-45-42_260595134347_rgbf000139-resize_1/000866_2014-06-09_20-45-42_260595134347_rgbf000139-resize_1-target.png,1000,3.2155,0.4897852278679935,4113,1010,feet,1021300,1244325,55,Man
794,614349,DepthScenes,duration_manipulation_targetAtFixation,jsons/ah_2.json,http://35.173.220.167/DepthDuration/v2_depth_duration_MTurk/v2_DepthDuration_HTML.html#30,30,1440,757,1440,900,9-5-2021,5-56-48,27,depth_duration_stimuli/001136_2014-06-17_15-19-41_260595134347_rgbf000076-resize_3/001136_2014-06-17_15-19-41_260595134347_rgbf000076-resize_3-target.png,1000,1.8655,0.5877422734415922,3274,993,feet,1021300,1244325,55,Man
795,614349,DepthScenes,duration_manipulation_targetAtFixation,jsons/ah_2.json,http://35.173.220.167/DepthDuration/v2_depth_duration_MTurk/v2_DepthDuration_HTML.html#30,30,1440,757,1440,900,9-5-2021,5-56-48,28,depth_duration_stimuli/000758_2014-06-08_22-05-08_260595134347_rgbf000085-resize_0/000758_2014-06-08_22-05-08_260595134347_rgbf000085-resize_0-target.png,1000,3.381,0.5877422734415922,4049,998,feet,1021300,1244325,55,Man
801,614349,DepthScenes,duration_manipulation_targetAtFixation,jsons/ah_2.json,http://35.173.220.167/DepthDuration/v2_depth_duration_MTurk/v2_DepthDuration_HTML.html#30,30,1440,757,1440,900,9-5-2021,5-56-48,34,depth_duration_stimuli/000542_2014-06-08_18-27-08_260595134347_rgbf000118-resize_1/000542_2014-06-08_18-27-08_260595134347_rgbf000118-resize_1-target.png,1000,3.0,0.7836563645887896,4922,993,feet,1021300,1244325,55,Man
803,614349,DepthScenes,duration_manipulation_targetAtFixation,jsons/ah_2.json,http://35.173.220.167/DepthDuration/v2_depth_duration_MTurk/v2_DepthDuration_HTML.html#30,30,1440,757,1440,900,9-5-2021,5-56-48,36,depth_duration_stimuli/001133_2014-06-17_14-49-16_260595134347_rgbf000100-resize_0/001133_2014-06-17_14-49-16_260595134347_rgbf000100-resize_0-target.png,1000,4.2115,1.4693556836039805,6358,897,feet,1021300,1244325,55,Man
804,614349,DepthScenes,duration_manipulation_targetAtFixation,jsons/ah_2.json,http://35.173.220.167/DepthDuration/v2_depth_duration_MTurk/v2_DepthDuration_HTML.html#30,30,1440,757,1440,900,9-5-2021,5-56-48,37,depth_duration_stimuli/000753_2014-06-08_21-57-44_260595134347_rgbf000123-resize_3/000753_2014-06-08_21-57-44_260595134347_rgbf000123-resize_3-target.png,1000,1.916,0.3918281822943948,4809,994,feet,1021300,1244325,55,Man
812,614349,DepthScenes,duration_manipulation_targetAtFixation,jsons/ah_2.json,http://35.173.220.167/DepthDuration/v2_depth_duration_MTurk/v2_DepthDuration_HTML.html#30,30,1440,757,1440,900,9-5-2021,5-56-48,45,depth_duration_stimuli/002131_2014-06-25_21-12-01_260595134347_rgbf000083-resize_0/002131_2014-06-25_21-12-01_260595134347_rgbf000083-resize_0-target.png,1000,1.7685,0.5877422734415922,5330,997,feet,1021300,1244325,55,Man
820,614349,DepthScenes,duration_manipulation_targetAtFixation,jsons/ah_2.json,http://35.173.220.167/DepthDuration/v2_depth_duration_MTurk/v2_DepthDuration_HTML.html#30,30,1440,757,1440,900,9-5-2021,5-56-48,53,depth_duration_stimuli/000927_2014-06-09_16-32-30_260595134347_rgbf000123-resize_3/000927_2014-06-09_16-32-30_260595134347_rgbf000123-resize_3-target.png,1000,2.6785,0.5877422734415922,4967,834,feet,1021300,1244325,55,Man
826,614349,DepthScenes,duration_manipulation_targetAtFixation,jsons/ah_2.json,http://35.173.220.167/DepthDuration/v2_depth_duration_MTurk/v2_DepthDuration_HTML.html#30,30,1440,757,1440,900,9-5-2021,5-56-48,59,depth_duration_stimuli/000486_2014-06-09_20-47-20_260595134347_rgbf000143-resize_2/000486_2014-06-09_20-47-20_260595134347_rgbf000143-resize_2-target.png,1000,4.8325,1.4693556836039805,3988,1008,feet,1021300,1244325,55,Man
828,614349,DepthScenes,duration_manipulation_targetAtFixation,jsons/ah_2.json,http://35.173.220.167/DepthDuration/v2_depth_duration_MTurk/v2_DepthDuration_HTML.html#30,30,1440,757,1440,900,9-5-2021,5-56-48,61,depth_duration_stimuli/001417_2014-06-19_16-25-36_260595134347_rgbf000115-resize_5/001417_2014-06-19_16-25-36_260595134347_rgbf000115-resize_5-target.png,1000,4.6255,1.3713986380303818,3857,1000,feet,1021300,1244325,55,Man
829,614349,DepthScenes,duration_manipulation_targetAtFixation,jsons/ah_2.json,http://35.173.220.167/DepthDuration/v2_depth_duration_MTurk/v2_DepthDuration_HTML.html#30,30,1440,757,1440,900,9-5-2021,5-56-48,62,depth_duration_stimuli/000368_2014-06-09_15-53-01_260595134347_rgbf000155-resize_2/000368_2014-06-09_15-53-01_260595134347_rgbf000155-resize_2-target.png,1000,2.486,0.5877422734415922,3163,999,feet,1021300,1244325,55,Man
831,614349,DepthScenes,duration_manipulation_targetAtFixation,jsons/ah_2.json,http://35.173.220.167/DepthDuration/v2_depth_duration_MTurk/v2_DepthDuration_HTML.html#30,30,1440,757,1440,900,9-5-2021,5-56-48,64,depth_duration_stimuli/001571_2014-06-20_17-21-32_260595134347_rgbf000089-resize_1/001571_2014-06-20_17-21-32_260595134347_rgbf000089-resize_1-target.png,1000,1.86,0.5877422734415922,4167,1004,feet,1021300,1244325,55,Man
848,614349,DepthScenes,duration_manipulation_targetAtFixation,jsons/ah_2.json,http://35.173.220.167/DepthDuration/v2_depth_duration_MTurk/v2_DepthDuration_HTML.html#30,30,1440,757,1440,900,9-5-2021,5-56-48,81,depth_duration_stimuli/000493_2014-06-09_21-01-18_260595134347_rgbf000196-resize_3/000493_2014-06-09_21-01-18_260595134347_rgbf000196-resize_3-target.png,1000,3.44,1.1754845468831845,5633,988,feet,1021300,1244325,55,Man
849,614349,DepthScenes,duration_manipulation_targetAtFixation,jsons/ah_2.json,http://35.173.220.167/DepthDuration/v2_depth_duration_MTurk/v2_DepthDuration_HTML.html#30,30,1440,757,1440,900,9-5-2021,5-56-48,82,depth_duration_stimuli/003048_2014-06-15_13-49-43_094959634447_rgbf000150-resize_1/003048_2014-06-15_13-49-43_094959634447_rgbf000150-resize_1-target.png,1000,4.0035,1.3713986380303818,6193,1013,feet,1021300,1244325,55,Man
852,614349,DepthScenes,duration_manipulation_targetAtFixation,jsons/ah_2.json,http://35.173.220.167/DepthDuration/v2_depth_duration_MTurk/v2_DepthDuration_HTML.html#30,30,1440,757,1440,900,9-5-2021,5-56-48,85,depth_duration_stimuli/001584_2014-06-20_11-07-43_260595134347_rgbf000002-resize_1/001584_2014-06-20_11-07-43_260595134347_rgbf000002-resize_1-target.png,1000,3.53,1.3713986380303818,4572,1000,feet,1021300,1244325,55,Man
858,614349,DepthScenes,duration_manipulation_targetAtFixation,jsons/ah_2.json,http://35.173.220.167/DepthDuration/v2_depth_duration_MTurk/v2_DepthDuration_HTML.html#30,30,1440,757,1440,900,9-5-2021,5-56-48,91,depth_duration_stimuli/003338_2014-05-20_11-01-23_094959634447_rgbf000051-resize_6/003338_2014-05-20_11-01-23_094959634447_rgbf000051-resize_6-target.png,1000,1.693,0.2938711367207961,3515,1003,feet,1021300,1244325,55,Man
860,614349,DepthScenes,duration_manipulation_targetAtFixation,jsons/ah_2.json,http://35.173.220.167/DepthDuration/v2_depth_duration_MTurk/v2_DepthDuration_HTML.html#30,30,1440,757,1440,900,9-5-2021,5-56-48,93,depth_duration_stimuli/002953_2014-06-08_17-32-18_094959634447_rgbf000059-resize_5/002953_2014-06-08_17-32-18_094959634447_rgbf000059-resize_5-target.png,1000,1.551,0.3918281822943948,4215,996,feet,1021300,1244325,55,Man
862,614349,DepthScenes,duration_manipulation_targetAtFixation,jsons/ah_2.json,http://35.173.220.167/DepthDuration/v2_depth_duration_MTurk/v2_DepthDuration_HTML.html#30,30,1440,757,1440,900,9-5-2021,5-56-48,95,depth_duration_stimuli/001197_2014-06-17_16-01-50_260595134347_rgbf000103-resize_4/001197_2014-06-17_16-01-50_260595134347_rgbf000103-resize_4-target.png,1000,3.4025,1.4693556836039805,3981,1000,feet,1021300,1244325,55,Man
868,614349,DepthScenes,duration_manipulation_targetAtFixation,jsons/ah_2.json,http://35.173.220.167/DepthDuration/v2_depth_duration_MTurk/v2_DepthDuration_HTML.html#30,30,1440,757,1440,900,9-5-2021,5-56-48,101,depth_duration_stimuli/001244_2014-06-17_16-47-45_260595134347_rgbf000030-resize_4/001244_2014-06-17_16-47-45_260595134347_rgbf000030-resize_4-target.png,1000,2.0425,0.5877422734415922,4254,983,feet,1021300,1244325,55,Man
869,614349,DepthScenes,duration_manipulation_targetAtFixation,jsons/ah_2.json,http://35.173.220.167/DepthDuration/v2_depth_duration_MTurk/v2_DepthDuration_HTML.html#30,30,1440,757,1440,900,9-5-2021,5-56-48,102,depth_duration_stimuli/000109_2014-05-14_23-41-52_260595134347_rgbf000035-resize_9/000109_2014-05-14_23-41-52_260595134347_rgbf000035-resize_9-target.png,1000,1.3545,0.4897852278679935,4372,994,feet,1021300,1244325,55,Man
870,614349,DepthScenes,duration_manipulation_targetAtFixation,jsons/ah_2.json,http://35.173.220.167/DepthDuration/v2_depth_duration_MTurk/v2_DepthDuration_HTML.html#30,30,1440,757,1440,900,9-5-2021,5-56-48,103,depth_duration_stimuli/002213_2014-06-28_18-37-58_260595134347_rgbf000055-resize_1/002213_2014-06-28_18-37-58_260595134347_rgbf000055-resize_1-target.png,1000,3.62,1.4693556836039805,4862,989,feet,1021300,1244325,55,Man
875,614349,DepthScenes,duration_manipulation_targetAtFixation,jsons/ah_2.json,http://35.173.220.167/DepthDuration/v2_depth_duration_MTurk/v2_DepthDuration_HTML.html#30,30,1440,757,1440,900,9-5-2021,5-56-48,108,depth_duration_stimuli/002657_2014-06-13_15-29-54_094959634447_rgbf000150-resize_1/002657_2014-06-13_15-29-54_094959634447_rgbf000150-resize_1-target.png,1000,4.919,1.959140911471974,4113,992,feet,1021300,1244325,55,Man
879,614349,DepthScenes,duration_manipulation_targetAtFixation,jsons/ah_2.json,http://35.173.220.167/DepthDuration/v2_depth_duration_MTurk/v2_DepthDuration_HTML.html#30,30,1440,757,1440,900,9-5-2021,5-56-48,112,depth_duration_stimuli/000009_2014-05-26_14-32-05_260595134347_rgbf000034-resize_3/000009_2014-05-26_14-32-05_260595134347_rgbf000034-resize_3-target.png,1000,3.8715,1.4693556836039805,3850,1062,feet,1021300,1244325,55,Man
880,614349,DepthScenes,duration_manipulation_targetAtFixation,jsons/ah_2.json,http://35.173.220.167/DepthDuration/v2_depth_duration_MTurk/v2_DepthDuration_HTML.html#30,30,1440,757,1440,900,9-5-2021,5-56-48,113,depth_duration_stimuli/001066_2014-06-08_22-03-20_260595134347_rgbf000066-resize_4/001066_2014-06-08_22-03-20_260595134347_rgbf000066-resize_4-target.png,1000,4.233,1.959140911471974,8656,1013,feet,1021300,1244325,55,Man
886,614349,DepthScenes,duration_manipulation_targetAtFixation,jsons/ah_2.json,http://35.173.220.167/DepthDuration/v2_depth_duration_MTurk/v2_DepthDuration_HTML.html#30,30,1440,757,1440,900,9-5-2021,5-56-48,119,depth_duration_stimuli/002637_2014-06-24_14-51-13_094959634447_rgbf000066-resize_4/002637_2014-06-24_14-51-13_094959634447_rgbf000066-resize_4-target.png,1000,1.9955,0.7836563645887896,4610,1003,feet,1021300,1244325,55,Man
897,614349,DepthScenes,duration_manipulation_targetAtFixation,jsons/ah_2.json,http://35.173.220.167/DepthDuration/v2_depth_duration_MTurk/v2_DepthDuration_HTML.html#30,30,1440,757,1440,900,9-5-2021,5-56-48,130,depth_duration_stimuli/003092_2014-06-24_21-01-49_094959634447_rgbf000049-resize_2/003092_2014-06-24_21-01-49_094959634447_rgbf000049-resize_2-target.png,1000,1.666,0.4897852278679935,4231,991,feet,1021300,1244325,55,Man
905,614349,DepthScenes,duration_manipulation_targetAtFixation,jsons/ah_2.json,http://35.173.220.167/DepthDuration/v2_depth_duration_MTurk/v2_DepthDuration_HTML.html#30,30,1440,757,1440,900,9-5-2021,5-56-48,138,depth_duration_stimuli/002663_2014-06-13_15-50-26_094959634447_rgbf000075-resize_1/002663_2014-06-13_15-50-26_094959634447_rgbf000075-resize_1-target.png,1000,4.7495,0.2938711367207961,4100,1003,feet,1021300,1244325,55,Man
906,614349,DepthScenes,duration_manipulation_targetAtFixation,jsons/ah_2.json,http://35.173.220.167/DepthDuration/v2_depth_duration_MTurk/v2_DepthDuration_HTML.html#30,30,1440,757,1440,900,9-5-2021,5-56-48,139,depth_duration_stimuli/000409_2014-06-04_19-23-33_260595134347_rgbf000067-resize_0/000409_2014-06-04_19-23-33_260595134347_rgbf000067-resize_0-target.png,1000,3.7335,1.4693556836039805,4895,1011,feet,1021300,1244325,55,Man
909,614349,DepthScenes,duration_manipulation_targetAtFixation,jsons/ah_2.json,http://35.173.220.167/DepthDuration/v2_depth_duration_MTurk/v2_DepthDuration_HTML.html#30,30,1440,757,1440,900,9-5-2021,5-56-48,142,depth_duration_stimuli/002758_2014-06-22_19-11-20_094959634447_rgbf000128-resize_1/002758_2014-06-22_19-11-20_094959634447_rgbf000128-resize_1-target.png,1000,2.555,0.5877422734415922,4913,989,feet,1021300,1244325,55,Man
912,614349,DepthScenes,duration_manipulation_targetAtFixation,jsons/ah_2.json,http://35.173.220.167/DepthDuration/v2_depth_duration_MTurk/v2_DepthDuration_HTML.html#30,30,1440,757,1440,900,9-5-2021,5-56-48,145,depth_duration_stimuli/000502_2014-06-08_23-02-32_260595134347_rgbf000063-resize_4/000502_2014-06-08_23-02-32_260595134347_rgbf000063-resize_4-target.png,1000,2.431,0.5877422734415922,4031,995,feet,1021300,1244325,55,Man
916,614349,DepthScenes,duration_manipulation_targetAtFixation,jsons/ah_2.json,http://35.173.220.167/DepthDuration/v2_depth_duration_MTurk/v2_DepthDuration_HTML.html#30,30,1440,757,1440,900,9-5-2021,5-56-48,149,depth_duration_stimuli/000917_2014-06-09_22-45-29_260595134347_rgbf000149-resize_3/000917_2014-06-09_22-45-29_260595134347_rgbf000149-resize_3-target.png,1000,4.1865,1.1754845468831845,4957,954,feet,1021300,1244325,55,Man
923,614349,DepthScenes,duration_manipulation_targetAtFixation,jsons/ah_2.json,http://35.173.220.167/DepthDuration/v2_depth_duration_MTurk/v2_DepthDuration_HTML.html#30,30,1440,757,1440,900,9-5-2021,5-56-48,156,depth_duration_stimuli/000436_2014-06-09_22-25-11_260595134347_rgbf000137-resize_1/000436_2014-06-09_22-25-11_260595134347_rgbf000137-resize_1-target.png,1000,4.0705,2.4489261393399677,3441,1004,feet,1021300,1244325,55,Man
926,614349,DepthScenes,duration_manipulation_targetAtFixation,jsons/ah_2.json,http://35.173.220.167/DepthDuration/v2_depth_duration_MTurk/v2_DepthDuration_HTML.html#30,30,1440,757,1440,900,9-5-2021,5-56-48,159,depth_duration_stimuli/000854_2014-06-09_19-43-13_260595134347_rgbf000066-resize_0/000854_2014-06-09_19-43-13_260595134347_rgbf000066-resize_0-target.png,1000,3.068,0.979570455735987,5648,1003,feet,1021300,1244325,55,Man
929,614349,DepthScenes,duration_manipulation_targetAtFixation,jsons/ah_2.json,http://35.173.220.167/DepthDuration/v2_depth_duration_MTurk/v2_DepthDuration_HTML.html#30,30,1440,757,1440,900,9-5-2021,5-56-48,162,depth_duration_stimuli/001617_2014-06-20_11-35-32_260595134347_rgbf000066-resize_1/001617_2014-06-20_11-35-32_260595134347_rgbf000066-resize_1-target.png,1000,3.791,1.1754845468831845,5167,1004,feet,1021300,1244325,55,Man
935,614349,DepthScenes,duration_manipulation_targetAtFixation,jsons/ah_2.json,http://35.173.220.167/DepthDuration/v2_depth_duration_MTurk/v2_DepthDuration_HTML.html#30,30,1440,757,1440,900,9-5-2021,5-56-48,168,depth_duration_stimuli/000506_2014-06-08_23-21-00_260595134347_rgbf000070-resize_7/000506_2014-06-08_23-21-00_260595134347_rgbf000070-resize_7-target.png,1000,4.0585,1.1754845468831845,4333,1088,feet,1021300,1244325,55,Man
942,614349,DepthScenes,duration_manipulation_targetAtFixation,jsons/ah_2.json,http://35.173.220.167/DepthDuration/v2_depth_duration_MTurk/v2_DepthDuration_HTML.html#30,30,1440,757,1440,900,9-5-2021,5-56-48,175,depth_duration_stimuli/002579_2014-06-24_14-08-03_094959634447_rgbf000061-resize_2/002579_2014-06-24_14-08-03_094959634447_rgbf000061-resize_2-target.png,1000,2.223125,0.6856993190151909,5085,995,feet,1021300,1244325,55,Man
943,614349,DepthScenes,duration_manipulation_targetAtFixation,jsons/ah_2.json,http://35.173.220.167/DepthDuration/v2_depth_duration_MTurk/v2_DepthDuration_HTML.html#30,30,1440,757,1440,900,9-5-2021,5-56-48,176,depth_duration_stimuli/002136_2014-06-25_21-18-03_260595134347_rgbf000109-resize_3/002136_2014-06-25_21-18-03_260595134347_rgbf000109-resize_3-target.png,1000,1.957,0.5877422734415922,4010,1005,feet,1021300,1244325,55,Man
945,614349,DepthScenes,duration_manipulation_targetAtFixation,jsons/ah_2.json,http://35.173.220.167/DepthDuration/v2_depth_duration_MTurk/v2_DepthDuration_HTML.html#30,30,1440,757,1440,900,9-5-2021,5-56-48,178,depth_duration_stimuli/002057_2014-06-24_21-00-13_260595134347_rgbf000120-resize_1/002057_2014-06-24_21-00-13_260595134347_rgbf000120-resize_1-target.png,1000,2.967,1.959140911471974,4572,1003,feet,1021300,1244325,55,Man
948,614349,DepthScenes,duration_manipulation_targetAtFixation,jsons/ah_2.json,http://35.173.220.167/DepthDuration/v2_depth_duration_MTurk/v2_DepthDuration_HTML.html#30,30,1440,757,1440,900,9-5-2021,5-56-48,181,depth_duration_stimuli/002425_2014-06-28_20-27-29_260595134347_rgbf000031-resize_8/002425_2014-06-28_20-27-29_260595134347_rgbf000031-resize_8-target.png,1000,3.896,1.4693556836039805,6859,1006,feet,1021300,1244325,55,Man
951,614349,DepthScenes,duration_manipulation_targetAtFixation,jsons/ah_2.json,http://35.173.220.167/DepthDuration/v2_depth_duration_MTurk/v2_DepthDuration_HTML.html#30,30,1440,757,1440,900,9-5-2021,5-56-48,184,depth_duration_stimuli/002549_2014-06-24_13-41-39_094959634447_rgbf000022-resize_3/002549_2014-06-24_13-41-39_094959634447_rgbf000022-resize_3-target.png,1000,1.476,0.5877422734415922,5378,1109,feet,1021300,1244325,55,Man
