,subjID,experimentName,versionName,sequenceName,url,selected_row,windowWidth,windowHeight,screenWidth,screenHeight,startDate,startTime,trial,stimulus,duration,actual_depth,depth_estimate,trial_RT,log_sceneDuration,unitSelection,experimentTime,totalTime,age,gender
0,710814,DepthScenes,duration_manipulation_targetAtFixation,jsons/ad_3.json,http://100.27.21.195/DepthDuration/v2_depth_duration_MTurk/v2_DepthDuration_HTML.html#8,8,1600,789,1600,900,9-11-2021,14-50-23,1,depth_duration_stimuli/002425_2014-06-28_20-27-29_260595134347_rgbf000031-resize_8/002425_2014-06-28_20-27-29_260595134347_rgbf000031-resize_8-target.png,250,3.896,1.524,3114,249,feet,750381,902117,44,Man
3,710814,DepthScenes,duration_manipulation_targetAtFixation,jsons/ad_3.json,http://100.27.21.195/DepthDuration/v2_depth_duration_MTurk/v2_DepthDuration_HTML.html#8,8,1600,789,1600,900,9-11-2021,14-50-23,4,depth_duration_stimuli/002725_2014-06-22_11-47-51_094959634447_rgbf000070-resize_1/002725_2014-06-22_11-47-51_094959634447_rgbf000070-resize_1-target.png,250,2.195,1.2192,2458,250,feet,750381,902117,44,Man
8,710814,DepthScenes,duration_manipulation_targetAtFixation,jsons/ad_3.json,http://100.27.21.195/DepthDuration/v2_depth_duration_MTurk/v2_DepthDuration_HTML.html#8,8,1600,789,1600,900,9-11-2021,14-50-23,9,depth_duration_stimuli/002103_2014-06-25_20-00-40_260595134347_rgbf000049-resize_0/002103_2014-06-25_20-00-40_260595134347_rgbf000049-resize_0-target.png,250,4.105,2.1336,3315,250,feet,750381,902117,44,Man
11,710814,DepthScenes,duration_manipulation_targetAtFixation,jsons/ad_3.json,http://100.27.21.195/DepthDuration/v2_depth_duration_MTurk/v2_DepthDuration_HTML.html#8,8,1600,789,1600,900,9-11-2021,14-50-23,12,depth_duration_stimuli/002953_2014-06-08_17-32-18_094959634447_rgbf000059-resize_5/002953_2014-06-08_17-32-18_094959634447_rgbf000059-resize_5-target.png,250,1.551,1.2192,2564,251,feet,750381,902117,44,Man
17,710814,DepthScenes,duration_manipulation_targetAtFixation,jsons/ad_3.json,http://100.27.21.195/DepthDuration/v2_depth_duration_MTurk/v2_DepthDuration_HTML.html#8,8,1600,789,1600,900,9-11-2021,14-50-23,18,depth_duration_stimuli/001032_2014-06-08_13-23-17_260595134347_rgbf000021-resize_3/001032_2014-06-08_13-23-17_260595134347_rgbf000021-resize_3-target.png,250,3.2725,1.8288000000000002,3131,250,feet,750381,902117,44,Man
18,710814,DepthScenes,duration_manipulation_targetAtFixation,jsons/ad_3.json,http://100.27.21.195/DepthDuration/v2_depth_duration_MTurk/v2_DepthDuration_HTML.html#8,8,1600,789,1600,900,9-11-2021,14-50-23,19,depth_duration_stimuli/002043_2014-06-24_20-29-38_260595134347_rgbf000039-resize_4/002043_2014-06-24_20-29-38_260595134347_rgbf000039-resize_4-target.png,250,2.8435,1.8288000000000002,1699,250,feet,750381,902117,44,Man
19,710814,DepthScenes,duration_manipulation_targetAtFixation,jsons/ad_3.json,http://100.27.21.195/DepthDuration/v2_depth_duration_MTurk/v2_DepthDuration_HTML.html#8,8,1600,789,1600,900,9-11-2021,14-50-23,20,depth_duration_stimuli/001197_2014-06-17_16-01-50_260595134347_rgbf000103-resize_4/001197_2014-06-17_16-01-50_260595134347_rgbf000103-resize_4-target.png,250,3.4025,1.8288000000000002,2227,250,feet,750381,902117,44,Man
25,710814,DepthScenes,duration_manipulation_targetAtFixation,jsons/ad_3.json,http://100.27.21.195/DepthDuration/v2_depth_duration_MTurk/v2_DepthDuration_HTML.html#8,8,1600,789,1600,900,9-11-2021,14-50-23,26,depth_duration_stimuli/000635_2014-06-08_16-38-42_260595134347_rgbf000106-resize_1/000635_2014-06-08_16-38-42_260595134347_rgbf000106-resize_1-target.png,250,2.074,1.8288000000000002,1914,251,feet,750381,902117,44,Man
30,710814,DepthScenes,duration_manipulation_targetAtFixation,jsons/ad_3.json,http://100.27.21.195/DepthDuration/v2_depth_duration_MTurk/v2_DepthDuration_HTML.html#8,8,1600,789,1600,900,9-11-2021,14-50-23,31,depth_duration_stimuli/001148_2014-06-17_15-26-42_260595134347_rgbf000129-resize_0/001148_2014-06-17_15-26-42_260595134347_rgbf000129-resize_0-target.png,250,4.368,2.1336,2739,249,feet,750381,902117,44,Man
32,710814,DepthScenes,duration_manipulation_targetAtFixation,jsons/ad_3.json,http://100.27.21.195/DepthDuration/v2_depth_duration_MTurk/v2_DepthDuration_HTML.html#8,8,1600,789,1600,900,9-11-2021,14-50-23,33,depth_duration_stimuli/000486_2014-06-09_20-47-20_260595134347_rgbf000143-resize_2/000486_2014-06-09_20-47-20_260595134347_rgbf000143-resize_2-target.png,250,4.8325,1.524,2770,250,feet,750381,902117,44,Man
33,710814,DepthScenes,duration_manipulation_targetAtFixation,jsons/ad_3.json,http://100.27.21.195/DepthDuration/v2_depth_duration_MTurk/v2_DepthDuration_HTML.html#8,8,1600,789,1600,900,9-11-2021,14-50-23,34,depth_duration_stimuli/002509_2014-06-24_13-19-22_094959634447_rgbf000077-resize_0/002509_2014-06-24_13-19-22_094959634447_rgbf000077-resize_0-target.png,250,1.3065,0.6096,1763,250,feet,750381,902117,44,Man
41,710814,DepthScenes,duration_manipulation_targetAtFixation,jsons/ad_3.json,http://100.27.21.195/DepthDuration/v2_depth_duration_MTurk/v2_DepthDuration_HTML.html#8,8,1600,789,1600,900,9-11-2021,14-50-23,42,depth_duration_stimuli/003534_2014-05-22_15-06-10_094959634447_rgbf000102-resize_4/003534_2014-05-22_15-06-10_094959634447_rgbf000102-resize_4-target.png,250,1.426,0.6096,1611,250,feet,750381,902117,44,Man
48,710814,DepthScenes,duration_manipulation_targetAtFixation,jsons/ad_3.json,http://100.27.21.195/DepthDuration/v2_depth_duration_MTurk/v2_DepthDuration_HTML.html#8,8,1600,789,1600,900,9-11-2021,14-50-23,49,depth_duration_stimuli/001055_2014-06-08_18-45-35_260595134347_rgbf000111-resize_4/001055_2014-06-08_18-45-35_260595134347_rgbf000111-resize_4-target.png,250,2.429,2.4384,3052,250,feet,750381,902117,44,Man
53,710814,DepthScenes,duration_manipulation_targetAtFixation,jsons/ad_3.json,http://100.27.21.195/DepthDuration/v2_depth_duration_MTurk/v2_DepthDuration_HTML.html#8,8,1600,789,1600,900,9-11-2021,14-50-23,54,depth_duration_stimuli/002657_2014-06-13_15-29-54_094959634447_rgbf000150-resize_1/002657_2014-06-13_15-29-54_094959634447_rgbf000150-resize_1-target.png,250,4.919,1.524,2268,251,feet,750381,902117,44,Man
55,710814,DepthScenes,duration_manipulation_targetAtFixation,jsons/ad_3.json,http://100.27.21.195/DepthDuration/v2_depth_duration_MTurk/v2_DepthDuration_HTML.html#8,8,1600,789,1600,900,9-11-2021,14-50-23,56,depth_duration_stimuli/002630_2014-06-24_14-47-50_094959634447_rgbf000055-resize_1/002630_2014-06-24_14-47-50_094959634447_rgbf000055-resize_1-target.png,250,3.0095,2.7432000000000003,2747,250,feet,750381,902117,44,Man
58,710814,DepthScenes,duration_manipulation_targetAtFixation,jsons/ad_3.json,http://100.27.21.195/DepthDuration/v2_depth_duration_MTurk/v2_DepthDuration_HTML.html#8,8,1600,789,1600,900,9-11-2021,14-50-23,59,depth_duration_stimuli/000917_2014-06-09_22-45-29_260595134347_rgbf000149-resize_3/000917_2014-06-09_22-45-29_260595134347_rgbf000149-resize_3-target.png,250,4.1865,2.1336,2995,250,feet,750381,902117,44,Man
66,710814,DepthScenes,duration_manipulation_targetAtFixation,jsons/ad_3.json,http://100.27.21.195/DepthDuration/v2_depth_duration_MTurk/v2_DepthDuration_HTML.html#8,8,1600,789,1600,900,9-11-2021,14-50-23,67,depth_duration_stimuli/000753_2014-06-08_21-57-44_260595134347_rgbf000123-resize_3/000753_2014-06-08_21-57-44_260595134347_rgbf000123-resize_3-target.png,250,1.916,0.9144000000000001,2595,250,feet,750381,902117,44,Man
70,710814,DepthScenes,duration_manipulation_targetAtFixation,jsons/ad_3.json,http://100.27.21.195/DepthDuration/v2_depth_duration_MTurk/v2_DepthDuration_HTML.html#8,8,1600,789,1600,900,9-11-2021,14-50-23,71,depth_duration_stimuli/000555_2014-06-09_22-42-23_260595134347_rgbf000037-resize_4/000555_2014-06-09_22-42-23_260595134347_rgbf000037-resize_4-target.png,250,1.9765,1.2192,3162,251,feet,750381,902117,44,Man
76,710814,DepthScenes,duration_manipulation_targetAtFixation,jsons/ad_3.json,http://100.27.21.195/DepthDuration/v2_depth_duration_MTurk/v2_DepthDuration_HTML.html#8,8,1600,789,1600,900,9-11-2021,14-50-23,77,depth_duration_stimuli/000869_2014-06-09_20-50-18_260595134347_rgbf000060-resize_3/000869_2014-06-09_20-50-18_260595134347_rgbf000060-resize_3-target.png,250,2.266,1.2192,1747,251,feet,750381,902117,44,Man
82,710814,DepthScenes,duration_manipulation_targetAtFixation,jsons/ad_3.json,http://100.27.21.195/DepthDuration/v2_depth_duration_MTurk/v2_DepthDuration_HTML.html#8,8,1600,789,1600,900,9-11-2021,14-50-23,83,depth_duration_stimuli/001052_2014-06-08_18-24-54_260595134347_rgbf000130-resize_1/001052_2014-06-08_18-24-54_260595134347_rgbf000130-resize_1-target.png,250,4.1045,2.4384,2202,248,feet,750381,902117,44,Man
90,710814,DepthScenes,duration_manipulation_targetAtFixation,jsons/ad_3.json,http://100.27.21.195/DepthDuration/v2_depth_duration_MTurk/v2_DepthDuration_HTML.html#8,8,1600,789,1600,900,9-11-2021,14-50-23,91,depth_duration_stimuli/002340_2014-06-28_20-05-46_260595134347_rgbf000113-resize_0/002340_2014-06-28_20-05-46_260595134347_rgbf000113-resize_0-target.png,250,2.4735,2.7432000000000003,2564,249,feet,750381,902117,44,Man
93,710814,DepthScenes,duration_manipulation_targetAtFixation,jsons/ad_3.json,http://100.27.21.195/DepthDuration/v2_depth_duration_MTurk/v2_DepthDuration_HTML.html#8,8,1600,789,1600,900,9-11-2021,14-50-23,94,depth_duration_stimuli/000493_2014-06-09_21-01-18_260595134347_rgbf000196-resize_3/000493_2014-06-09_21-01-18_260595134347_rgbf000196-resize_3-target.png,250,3.44,1.524,2163,251,feet,750381,902117,44,Man
94,710814,DepthScenes,duration_manipulation_targetAtFixation,jsons/ad_3.json,http://100.27.21.195/DepthDuration/v2_depth_duration_MTurk/v2_DepthDuration_HTML.html#8,8,1600,789,1600,900,9-11-2021,14-50-23,95,depth_duration_stimuli/000709_2014-06-08_13-51-55_260595134347_rgbf000068-resize_3/000709_2014-06-08_13-51-55_260595134347_rgbf000068-resize_3-target.png,250,1.803,1.2192,1859,251,feet,750381,902117,44,Man
95,710814,DepthScenes,duration_manipulation_targetAtFixation,jsons/ad_3.json,http://100.27.21.195/DepthDuration/v2_depth_duration_MTurk/v2_DepthDuration_HTML.html#8,8,1600,789,1600,900,9-11-2021,14-50-23,96,depth_duration_stimuli/001617_2014-06-20_11-35-32_260595134347_rgbf000066-resize_1/001617_2014-06-20_11-35-32_260595134347_rgbf000066-resize_1-target.png,250,3.791,2.7432000000000003,2162,250,feet,750381,902117,44,Man
96,710814,DepthScenes,duration_manipulation_targetAtFixation,jsons/ad_3.json,http://100.27.21.195/DepthDuration/v2_depth_duration_MTurk/v2_DepthDuration_HTML.html#8,8,1600,789,1600,900,9-11-2021,14-50-23,97,depth_duration_stimuli/000636_2014-06-08_16-39-02_260595134347_rgbf000108-resize_4/000636_2014-06-08_16-39-02_260595134347_rgbf000108-resize_4-target.png,250,2.682,0.6096,2066,250,feet,750381,902117,44,Man
109,710814,DepthScenes,duration_manipulation_targetAtFixation,jsons/ad_3.json,http://100.27.21.195/DepthDuration/v2_depth_duration_MTurk/v2_DepthDuration_HTML.html#8,8,1600,789,1600,900,9-11-2021,14-50-23,110,depth_duration_stimuli/002600_2014-06-24_14-27-04_094959634447_rgbf000074-resize_2/002600_2014-06-24_14-27-04_094959634447_rgbf000074-resize_2-target.png,250,2.7575,1.8288000000000002,1769,250,feet,750381,902117,44,Man
110,710814,DepthScenes,duration_manipulation_targetAtFixation,jsons/ad_3.json,http://100.27.21.195/DepthDuration/v2_depth_duration_MTurk/v2_DepthDuration_HTML.html#8,8,1600,789,1600,900,9-11-2021,14-50-23,111,depth_duration_stimuli/000854_2014-06-09_19-43-13_260595134347_rgbf000066-resize_0/000854_2014-06-09_19-43-13_260595134347_rgbf000066-resize_0-target.png,250,3.068,1.2192,2075,250,feet,750381,902117,44,Man
113,710814,DepthScenes,duration_manipulation_targetAtFixation,jsons/ad_3.json,http://100.27.21.195/DepthDuration/v2_depth_duration_MTurk/v2_DepthDuration_HTML.html#8,8,1600,789,1600,900,9-11-2021,14-50-23,114,depth_duration_stimuli/001570_2014-06-20_17-21-09_260595134347_rgbf000135-resize_4/001570_2014-06-20_17-21-09_260595134347_rgbf000135-resize_4-target.png,250,4.467,1.524,2001,250,feet,750381,902117,44,Man
114,710814,DepthScenes,duration_manipulation_targetAtFixation,jsons/ad_3.json,http://100.27.21.195/DepthDuration/v2_depth_duration_MTurk/v2_DepthDuration_HTML.html#8,8,1600,789,1600,900,9-11-2021,14-50-23,115,depth_duration_stimuli/001724_2014-06-26_19-28-50_260595134347_rgbf000037-resize_7/001724_2014-06-26_19-28-50_260595134347_rgbf000037-resize_7-target.png,250,3.827,1.524,1954,250,feet,750381,902117,44,Man
121,710814,DepthScenes,duration_manipulation_targetAtFixation,jsons/ad_3.json,http://100.27.21.195/DepthDuration/v2_depth_duration_MTurk/v2_DepthDuration_HTML.html#8,8,1600,789,1600,900,9-11-2021,14-50-23,122,depth_duration_stimuli/002199_2014-06-28_18-33-56_260595134347_rgbf000074-resize_0/002199_2014-06-28_18-33-56_260595134347_rgbf000074-resize_0-target.png,250,1.996,1.8288000000000002,1874,250,feet,750381,902117,44,Man
124,710814,DepthScenes,duration_manipulation_targetAtFixation,jsons/ad_3.json,http://100.27.21.195/DepthDuration/v2_depth_duration_MTurk/v2_DepthDuration_HTML.html#8,8,1600,789,1600,900,9-11-2021,14-50-23,125,depth_duration_stimuli/003546_2014-05-22_15-48-53_094959634447_rgbf004816-resize_3/003546_2014-05-22_15-48-53_094959634447_rgbf004816-resize_3-target.png,250,2.62625,1.2192,1954,249,feet,750381,902117,44,Man
128,710814,DepthScenes,duration_manipulation_targetAtFixation,jsons/ad_3.json,http://100.27.21.195/DepthDuration/v2_depth_duration_MTurk/v2_DepthDuration_HTML.html#8,8,1600,789,1600,900,9-11-2021,14-50-23,129,depth_duration_stimuli/000788_2014-06-08_22-34-36_260595134347_rgbf000131-resize_1/000788_2014-06-08_22-34-36_260595134347_rgbf000131-resize_1-target.png,250,3.359,1.8288000000000002,11065,250,feet,750381,902117,44,Man
133,710814,DepthScenes,duration_manipulation_targetAtFixation,jsons/ad_3.json,http://100.27.21.195/DepthDuration/v2_depth_duration_MTurk/v2_DepthDuration_HTML.html#8,8,1600,789,1600,900,9-11-2021,14-50-23,134,depth_duration_stimuli/000469_2014-06-09_19-42-10_260595134347_rgbf000081-resize_1/000469_2014-06-09_19-42-10_260595134347_rgbf000081-resize_1-target.png,250,1.652,1.2192,3508,250,feet,750381,902117,44,Man
134,710814,DepthScenes,duration_manipulation_targetAtFixation,jsons/ad_3.json,http://100.27.21.195/DepthDuration/v2_depth_duration_MTurk/v2_DepthDuration_HTML.html#8,8,1600,789,1600,900,9-11-2021,14-50-23,135,depth_duration_stimuli/001110_2014-06-15_17-25-28_260595134347_rgbf000150-resize_1/001110_2014-06-15_17-25-28_260595134347_rgbf000150-resize_1-target.png,250,1.7115,1.524,5553,251,feet,750381,902117,44,Man
135,710814,DepthScenes,duration_manipulation_targetAtFixation,jsons/ad_3.json,http://100.27.21.195/DepthDuration/v2_depth_duration_MTurk/v2_DepthDuration_HTML.html#8,8,1600,789,1600,900,9-11-2021,14-50-23,136,depth_duration_stimuli/002375_2014-06-28_20-13-44_260595134347_rgbf000032-resize_1/002375_2014-06-28_20-13-44_260595134347_rgbf000032-resize_1-target.png,250,4.0175,1.524,5418,251,feet,750381,902117,44,Man
136,710814,DepthScenes,duration_manipulation_targetAtFixation,jsons/ad_3.json,http://100.27.21.195/DepthDuration/v2_depth_duration_MTurk/v2_DepthDuration_HTML.html#8,8,1600,789,1600,900,9-11-2021,14-50-23,137,depth_duration_stimuli/000414_2014-06-04_19-49-13_260595134347_rgbf000044-resize_0/000414_2014-06-04_19-49-13_260595134347_rgbf000044-resize_0-target.png,250,4.329,1.2192,3204,248,feet,750381,902117,44,Man
145,710814,DepthScenes,duration_manipulation_targetAtFixation,jsons/ad_3.json,http://100.27.21.195/DepthDuration/v2_depth_duration_MTurk/v2_DepthDuration_HTML.html#8,8,1600,789,1600,900,9-11-2021,14-50-23,146,depth_duration_stimuli/002323_2014-06-28_20-01-54_260595134347_rgbf000051-resize_4/002323_2014-06-28_20-01-54_260595134347_rgbf000051-resize_4-target.png,250,3.731,2.7432000000000003,1936,249,feet,750381,902117,44,Man
151,710814,DepthScenes,duration_manipulation_targetAtFixation,jsons/ad_3.json,http://100.27.21.195/DepthDuration/v2_depth_duration_MTurk/v2_DepthDuration_HTML.html#8,8,1600,789,1600,900,9-11-2021,14-50-23,152,depth_duration_stimuli/001136_2014-06-17_15-19-41_260595134347_rgbf000076-resize_3/001136_2014-06-17_15-19-41_260595134347_rgbf000076-resize_3-target.png,250,1.8655,1.2192,1835,250,feet,750381,902117,44,Man
156,710814,DepthScenes,duration_manipulation_targetAtFixation,jsons/ad_3.json,http://100.27.21.195/DepthDuration/v2_depth_duration_MTurk/v2_DepthDuration_HTML.html#8,8,1600,789,1600,900,9-11-2021,14-50-23,157,depth_duration_stimuli/000506_2014-06-08_23-21-00_260595134347_rgbf000070-resize_7/000506_2014-06-08_23-21-00_260595134347_rgbf000070-resize_7-target.png,250,4.0585,2.7432000000000003,2381,249,feet,750381,902117,44,Man
174,710814,DepthScenes,duration_manipulation_targetAtFixation,jsons/ad_3.json,http://100.27.21.195/DepthDuration/v2_depth_duration_MTurk/v2_DepthDuration_HTML.html#8,8,1600,789,1600,900,9-11-2021,14-50-23,175,depth_duration_stimuli/001555_2014-06-20_17-12-10_260595134347_rgbf000065-resize_4/001555_2014-06-20_17-12-10_260595134347_rgbf000065-resize_4-target.png,250,1.633,0.9144000000000001,2078,250,feet,750381,902117,44,Man
175,710814,DepthScenes,duration_manipulation_targetAtFixation,jsons/ad_3.json,http://100.27.21.195/DepthDuration/v2_depth_duration_MTurk/v2_DepthDuration_HTML.html#8,8,1600,789,1600,900,9-11-2021,14-50-23,176,depth_duration_stimuli/001214_2014-06-17_16-13-55_260595134347_rgbf000111-resize_0/001214_2014-06-17_16-13-55_260595134347_rgbf000111-resize_0-target.png,250,2.6505,0.9144000000000001,1758,250,feet,750381,902117,44,Man
176,710814,DepthScenes,duration_manipulation_targetAtFixation,jsons/ad_3.json,http://100.27.21.195/DepthDuration/v2_depth_duration_MTurk/v2_DepthDuration_HTML.html#8,8,1600,789,1600,900,9-11-2021,14-50-23,177,depth_duration_stimuli/002989_2014-06-15_12-25-03_094959634447_rgbf000150-resize_3/002989_2014-06-15_12-25-03_094959634447_rgbf000150-resize_3-target.png,250,4.1975,2.7432000000000003,2424,250,feet,750381,902117,44,Man
179,710814,DepthScenes,duration_manipulation_targetAtFixation,jsons/ad_3.json,http://100.27.21.195/DepthDuration/v2_depth_duration_MTurk/v2_DepthDuration_HTML.html#8,8,1600,789,1600,900,9-11-2021,14-50-23,180,depth_duration_stimuli/001164_2014-06-17_15-35-46_260595134347_rgbf000085-resize_3/001164_2014-06-17_15-35-46_260595134347_rgbf000085-resize_3-target.png,250,2.354,0.9144000000000001,1775,250,feet,750381,902117,44,Man
181,710814,DepthScenes,duration_manipulation_targetAtFixation,jsons/ad_3.json,http://100.27.21.195/DepthDuration/v2_depth_duration_MTurk/v2_DepthDuration_HTML.html#8,8,1600,789,1600,900,9-11-2021,14-50-23,182,depth_duration_stimuli/000736_2014-06-08_18-24-15_260595134347_rgbf000206-resize_3/000736_2014-06-08_18-24-15_260595134347_rgbf000206-resize_3-target.png,250,3.515,2.4384,2416,250,feet,750381,902117,44,Man
184,710814,DepthScenes,duration_manipulation_targetAtFixation,jsons/ad_3.json,http://100.27.21.195/DepthDuration/v2_depth_duration_MTurk/v2_DepthDuration_HTML.html#8,8,1600,789,1600,900,9-11-2021,14-50-23,185,depth_duration_stimuli/000549_2014-06-08_22-10-24_260595134347_rgbf000247-resize_3/000549_2014-06-08_22-10-24_260595134347_rgbf000247-resize_3-target.png,250,1.841,0.6096,3019,250,feet,750381,902117,44,Man
186,710814,DepthScenes,duration_manipulation_targetAtFixation,jsons/ad_3.json,http://100.27.21.195/DepthDuration/v2_depth_duration_MTurk/v2_DepthDuration_HTML.html#8,8,1600,789,1600,900,9-11-2021,14-50-23,187,depth_duration_stimuli/002748_2014-06-22_19-07-22_094959634447_rgbf000078-resize_1/002748_2014-06-22_19-07-22_094959634447_rgbf000078-resize_1-target.png,250,4.6705,2.7432000000000003,1878,250,feet,750381,902117,44,Man
188,710814,DepthScenes,duration_manipulation_targetAtFixation,jsons/ad_3.json,http://100.27.21.195/DepthDuration/v2_depth_duration_MTurk/v2_DepthDuration_HTML.html#8,8,1600,789,1600,900,9-11-2021,14-50-23,189,depth_duration_stimuli/000642_2014-06-08_16-59-25_260595134347_rgbf000098-resize_2/000642_2014-06-08_16-59-25_260595134347_rgbf000098-resize_2-target.png,250,2.8815,1.524,3035,249,feet,750381,902117,44,Man
191,710814,DepthScenes,duration_manipulation_targetAtFixation,jsons/ad_3.json,http://100.27.21.195/DepthDuration/v2_depth_duration_MTurk/v2_DepthDuration_HTML.html#8,8,1600,789,1600,900,9-11-2021,14-50-23,192,depth_duration_stimuli/003490_2014-05-21_15-50-11_094959634447_rgbf000101-resize_3/003490_2014-05-21_15-50-11_094959634447_rgbf000101-resize_3-target.png,250,3.6445,2.4384,1644,250,feet,750381,902117,44,Man
193,665311,DepthScenes,duration_manipulation_targetAtFixation,jsons/ah.json,http://35.173.220.167/DepthDuration/v2_depth_duration_MTurk/v2_DepthDuration_HTML.html#1,1,1150,643,1366,768,9-7-2021,14-55-22,2,depth_duration_stimuli/001016_2014-06-09_16-16-10_260595134347_rgbf000112-resize_5/001016_2014-06-09_16-16-10_260595134347_rgbf000112-resize_5-target.png,250,1.6565,1.8288000000000002,3015,258,feet,1149535,1196883,25,Man
194,665311,DepthScenes,duration_manipulation_targetAtFixation,jsons/ah.json,http://35.173.220.167/DepthDuration/v2_depth_duration_MTurk/v2_DepthDuration_HTML.html#1,1,1150,643,1366,768,9-7-2021,14-55-22,3,depth_duration_stimuli/001450_2014-06-19_17-02-03_260595134347_rgbf000203-resize_4/001450_2014-06-19_17-02-03_260595134347_rgbf000203-resize_4-target.png,250,4.0106666666667,1.2192,3288,241,feet,1149535,1196883,25,Man
195,665311,DepthScenes,duration_manipulation_targetAtFixation,jsons/ah.json,http://35.173.220.167/DepthDuration/v2_depth_duration_MTurk/v2_DepthDuration_HTML.html#1,1,1150,643,1366,768,9-7-2021,14-55-22,4,depth_duration_stimuli/001181_2014-06-17_15-50-57_260595134347_rgbf000106-resize_4/001181_2014-06-17_15-50-57_260595134347_rgbf000106-resize_4-target.png,250,4.149,2.4384,2886,249,feet,1149535,1196883,25,Man
213,665311,DepthScenes,duration_manipulation_targetAtFixation,jsons/ah.json,http://35.173.220.167/DepthDuration/v2_depth_duration_MTurk/v2_DepthDuration_HTML.html#1,1,1150,643,1366,768,9-7-2021,14-55-22,22,depth_duration_stimuli/000137_2014-05-20_17-04-49_260595134347_rgbf000120-resize_1/000137_2014-05-20_17-04-49_260595134347_rgbf000120-resize_1-target.png,250,3.786,3.048,3121,254,feet,1149535,1196883,25,Man
217,665311,DepthScenes,duration_manipulation_targetAtFixation,jsons/ah.json,http://35.173.220.167/DepthDuration/v2_depth_duration_MTurk/v2_DepthDuration_HTML.html#1,1,1150,643,1366,768,9-7-2021,14-55-22,26,depth_duration_stimuli/000483_2014-06-09_20-41-45_260595134347_rgbf000116-resize_4/000483_2014-06-09_20-41-45_260595134347_rgbf000116-resize_4-target.png,250,1.337,1.524,2993,243,feet,1149535,1196883,25,Man
221,665311,DepthScenes,duration_manipulation_targetAtFixation,jsons/ah.json,http://35.173.220.167/DepthDuration/v2_depth_duration_MTurk/v2_DepthDuration_HTML.html#1,1,1150,643,1366,768,9-7-2021,14-55-22,30,depth_duration_stimuli/000780_2014-06-08_22-28-29_260595134347_rgbf000126-resize_1/000780_2014-06-08_22-28-29_260595134347_rgbf000126-resize_1-target.png,250,3.3825,1.8288000000000002,4288,254,feet,1149535,1196883,25,Man
223,665311,DepthScenes,duration_manipulation_targetAtFixation,jsons/ah.json,http://35.173.220.167/DepthDuration/v2_depth_duration_MTurk/v2_DepthDuration_HTML.html#1,1,1150,643,1366,768,9-7-2021,14-55-22,32,depth_duration_stimuli/002444_2014-06-28_20-32-08_260595134347_rgbf000027-resize_0/002444_2014-06-28_20-32-08_260595134347_rgbf000027-resize_0-target.png,250,4.389,1.8288000000000002,2654,252,feet,1149535,1196883,25,Man
230,665311,DepthScenes,duration_manipulation_targetAtFixation,jsons/ah.json,http://35.173.220.167/DepthDuration/v2_depth_duration_MTurk/v2_DepthDuration_HTML.html#1,1,1150,643,1366,768,9-7-2021,14-55-22,39,depth_duration_stimuli/000549_2014-06-08_22-10-24_260595134347_rgbf000247-resize_3/000549_2014-06-08_22-10-24_260595134347_rgbf000247-resize_3-target.png,250,1.841,2.4384,3512,249,feet,1149535,1196883,25,Man
233,665311,DepthScenes,duration_manipulation_targetAtFixation,jsons/ah.json,http://35.173.220.167/DepthDuration/v2_depth_duration_MTurk/v2_DepthDuration_HTML.html#1,1,1150,643,1366,768,9-7-2021,14-55-22,42,depth_duration_stimuli/001056_2014-06-08_18-46-44_260595134347_rgbf000068-resize_0/001056_2014-06-08_18-46-44_260595134347_rgbf000068-resize_0-target.png,250,2.6625,1.2192,2836,247,feet,1149535,1196883,25,Man
235,665311,DepthScenes,duration_manipulation_targetAtFixation,jsons/ah.json,http://35.173.220.167/DepthDuration/v2_depth_duration_MTurk/v2_DepthDuration_HTML.html#1,1,1150,643,1366,768,9-7-2021,14-55-22,44,depth_duration_stimuli/000830_2014-06-04_19-49-31_260595134347_rgbf000096-resize_2/000830_2014-06-04_19-49-31_260595134347_rgbf000096-resize_2-target.png,250,2.6353333333333,1.9812,3536,242,feet,1149535,1196883,25,Man
238,665311,DepthScenes,duration_manipulation_targetAtFixation,jsons/ah.json,http://35.173.220.167/DepthDuration/v2_depth_duration_MTurk/v2_DepthDuration_HTML.html#1,1,1150,643,1366,768,9-7-2021,14-55-22,47,depth_duration_stimuli/002660_2014-06-13_15-44-18_094959634447_rgbf001878-resize_2/002660_2014-06-13_15-44-18_094959634447_rgbf001878-resize_2-target.png,250,3.576,1.524,2922,243,feet,1149535,1196883,25,Man
239,665311,DepthScenes,duration_manipulation_targetAtFixation,jsons/ah.json,http://35.173.220.167/DepthDuration/v2_depth_duration_MTurk/v2_DepthDuration_HTML.html#1,1,1150,643,1366,768,9-7-2021,14-55-22,48,depth_duration_stimuli/000869_2014-06-09_20-50-18_260595134347_rgbf000060-resize_3/000869_2014-06-09_20-50-18_260595134347_rgbf000060-resize_3-target.png,250,2.266,2.4384,2847,253,feet,1149535,1196883,25,Man
240,665311,DepthScenes,duration_manipulation_targetAtFixation,jsons/ah.json,http://35.173.220.167/DepthDuration/v2_depth_duration_MTurk/v2_DepthDuration_HTML.html#1,1,1150,643,1366,768,9-7-2021,14-55-22,49,depth_duration_stimuli/000740_2014-06-08_18-46-23_260595134347_rgbf000049-resize_6/000740_2014-06-08_18-46-23_260595134347_rgbf000049-resize_6-target.png,250,1.687,1.2192,2943,246,feet,1149535,1196883,25,Man
246,665311,DepthScenes,duration_manipulation_targetAtFixation,jsons/ah.json,http://35.173.220.167/DepthDuration/v2_depth_duration_MTurk/v2_DepthDuration_HTML.html#1,1,1150,643,1366,768,9-7-2021,14-55-22,55,depth_duration_stimuli/003010_2014-06-15_12-54-35_094959634447_rgbf000112-resize_0/003010_2014-06-15_12-54-35_094959634447_rgbf000112-resize_0-target.png,250,3.1185,3.048,3087,250,feet,1149535,1196883,25,Man
251,665311,DepthScenes,duration_manipulation_targetAtFixation,jsons/ah.json,http://35.173.220.167/DepthDuration/v2_depth_duration_MTurk/v2_DepthDuration_HTML.html#1,1,1150,643,1366,768,9-7-2021,14-55-22,60,depth_duration_stimuli/000734_2014-06-08_17-39-11_260595134347_rgbf000128-resize_2/000734_2014-06-08_17-39-11_260595134347_rgbf000128-resize_2-target.png,250,4.098,3.048,3350,247,feet,1149535,1196883,25,Man
257,665311,DepthScenes,duration_manipulation_targetAtFixation,jsons/ah.json,http://35.173.220.167/DepthDuration/v2_depth_duration_MTurk/v2_DepthDuration_HTML.html#1,1,1150,643,1366,768,9-7-2021,14-55-22,66,depth_duration_stimuli/000635_2014-06-08_16-38-42_260595134347_rgbf000106-resize_1/000635_2014-06-08_16-38-42_260595134347_rgbf000106-resize_1-target.png,250,2.074,1.8288000000000002,2704,239,feet,1149535,1196883,25,Man
258,665311,DepthScenes,duration_manipulation_targetAtFixation,jsons/ah.json,http://35.173.220.167/DepthDuration/v2_depth_duration_MTurk/v2_DepthDuration_HTML.html#1,1,1150,643,1366,768,9-7-2021,14-55-22,67,depth_duration_stimuli/000555_2014-06-09_22-42-23_260595134347_rgbf000037-resize_4/000555_2014-06-09_22-42-23_260595134347_rgbf000037-resize_4-target.png,250,1.9765,0.9144000000000001,2922,257,feet,1149535,1196883,25,Man
259,665311,DepthScenes,duration_manipulation_targetAtFixation,jsons/ah.json,http://35.173.220.167/DepthDuration/v2_depth_duration_MTurk/v2_DepthDuration_HTML.html#1,1,1150,643,1366,768,9-7-2021,14-55-22,68,depth_duration_stimuli/000739_2014-06-08_18-45-58_260595134347_rgbf000068-resize_1/000739_2014-06-08_18-45-58_260595134347_rgbf000068-resize_1-target.png,250,3.534,1.2192,2921,247,feet,1149535,1196883,25,Man
261,665311,DepthScenes,duration_manipulation_targetAtFixation,jsons/ah.json,http://35.173.220.167/DepthDuration/v2_depth_duration_MTurk/v2_DepthDuration_HTML.html#1,1,1150,643,1366,768,9-7-2021,14-55-22,70,depth_duration_stimuli/001055_2014-06-08_18-45-35_260595134347_rgbf000111-resize_4/001055_2014-06-08_18-45-35_260595134347_rgbf000111-resize_4-target.png,250,2.429,1.524,2843,249,feet,1149535,1196883,25,Man
267,665311,DepthScenes,duration_manipulation_targetAtFixation,jsons/ah.json,http://35.173.220.167/DepthDuration/v2_depth_duration_MTurk/v2_DepthDuration_HTML.html#1,1,1150,643,1366,768,9-7-2021,14-55-22,76,depth_duration_stimuli/002467_2014-06-28_20-38-07_260595134347_rgbf000026-resize_2/002467_2014-06-28_20-38-07_260595134347_rgbf000026-resize_2-target.png,250,4.742,2.4384,2968,245,feet,1149535,1196883,25,Man
268,665311,DepthScenes,duration_manipulation_targetAtFixation,jsons/ah.json,http://35.173.220.167/DepthDuration/v2_depth_duration_MTurk/v2_DepthDuration_HTML.html#1,1,1150,643,1366,768,9-7-2021,14-55-22,77,depth_duration_stimuli/001188_2014-06-17_15-54-10_260595134347_rgbf000090-resize_2/001188_2014-06-17_15-54-10_260595134347_rgbf000090-resize_2-target.png,250,2.744,1.524,3017,257,feet,1149535,1196883,25,Man
274,665311,DepthScenes,duration_manipulation_targetAtFixation,jsons/ah.json,http://35.173.220.167/DepthDuration/v2_depth_duration_MTurk/v2_DepthDuration_HTML.html#1,1,1150,643,1366,768,9-7-2021,14-55-22,83,depth_duration_stimuli/003081_2014-06-15_15-19-16_094959634447_rgbf000150-resize_1/003081_2014-06-15_15-19-16_094959634447_rgbf000150-resize_1-target.png,250,3.9125,3.6576000000000004,3206,246,feet,1149535,1196883,25,Man
281,665311,DepthScenes,duration_manipulation_targetAtFixation,jsons/ah.json,http://35.173.220.167/DepthDuration/v2_depth_duration_MTurk/v2_DepthDuration_HTML.html#1,1,1150,643,1366,768,9-7-2021,14-55-22,90,depth_duration_stimuli/002199_2014-06-28_18-33-56_260595134347_rgbf000074-resize_0/002199_2014-06-28_18-33-56_260595134347_rgbf000074-resize_0-target.png,250,1.996,3.6576000000000004,3168,251,feet,1149535,1196883,25,Man
285,665311,DepthScenes,duration_manipulation_targetAtFixation,jsons/ah.json,http://35.173.220.167/DepthDuration/v2_depth_duration_MTurk/v2_DepthDuration_HTML.html#1,1,1150,643,1366,768,9-7-2021,14-55-22,94,depth_duration_stimuli/003129_2014-05-12_10-48-10_094959634447_rgbf000100-resize_0/003129_2014-05-12_10-48-10_094959634447_rgbf000100-resize_0-target.png,250,4.9305,2.4384,2840,241,feet,1149535,1196883,25,Man
288,665311,DepthScenes,duration_manipulation_targetAtFixation,jsons/ah.json,http://35.173.220.167/DepthDuration/v2_depth_duration_MTurk/v2_DepthDuration_HTML.html#1,1,1150,643,1366,768,9-7-2021,14-55-22,97,depth_duration_stimuli/001724_2014-06-26_19-28-50_260595134347_rgbf000037-resize_7/001724_2014-06-26_19-28-50_260595134347_rgbf000037-resize_7-target.png,250,3.827,1.524,2658,250,feet,1149535,1196883,25,Man
296,665311,DepthScenes,duration_manipulation_targetAtFixation,jsons/ah.json,http://35.173.220.167/DepthDuration/v2_depth_duration_MTurk/v2_DepthDuration_HTML.html#1,1,1150,643,1366,768,9-7-2021,14-55-22,105,depth_duration_stimuli/001150_2014-06-17_15-27-34_260595134347_rgbf000108-resize_2/001150_2014-06-17_15-27-34_260595134347_rgbf000108-resize_2-target.png,250,4.0325,1.524,3158,259,feet,1149535,1196883,25,Man
305,665311,DepthScenes,duration_manipulation_targetAtFixation,jsons/ah.json,http://35.173.220.167/DepthDuration/v2_depth_duration_MTurk/v2_DepthDuration_HTML.html#1,1,1150,643,1366,768,9-7-2021,14-55-22,114,depth_duration_stimuli/001392_2014-06-19_16-07-59_260595134347_rgbf000046-resize_1/001392_2014-06-19_16-07-59_260595134347_rgbf000046-resize_1-target.png,250,4.135,2.4384,3467,254,feet,1149535,1196883,25,Man
309,665311,DepthScenes,duration_manipulation_targetAtFixation,jsons/ah.json,http://35.173.220.167/DepthDuration/v2_depth_duration_MTurk/v2_DepthDuration_HTML.html#1,1,1150,643,1366,768,9-7-2021,14-55-22,118,depth_duration_stimuli/001092_2014-06-15_17-34-58_260595134347_rgbf000171-resize_3/001092_2014-06-15_17-34-58_260595134347_rgbf000171-resize_3-target.png,250,2.6935,1.2192,4134,247,feet,1149535,1196883,25,Man
314,665311,DepthScenes,duration_manipulation_targetAtFixation,jsons/ah.json,http://35.173.220.167/DepthDuration/v2_depth_duration_MTurk/v2_DepthDuration_HTML.html#1,1,1150,643,1366,768,9-7-2021,14-55-22,123,depth_duration_stimuli/003534_2014-05-22_15-06-10_094959634447_rgbf000102-resize_4/003534_2014-05-22_15-06-10_094959634447_rgbf000102-resize_4-target.png,250,1.426,1.524,3138,240,feet,1149535,1196883,25,Man
316,665311,DepthScenes,duration_manipulation_targetAtFixation,jsons/ah.json,http://35.173.220.167/DepthDuration/v2_depth_duration_MTurk/v2_DepthDuration_HTML.html#1,1,1150,643,1366,768,9-7-2021,14-55-22,125,depth_duration_stimuli/000906_2014-06-08_13-35-43_260595134347_rgbf000155-resize_1/000906_2014-06-08_13-35-43_260595134347_rgbf000155-resize_1-target.png,250,2.849,1.524,2773,238,feet,1149535,1196883,25,Man
318,665311,DepthScenes,duration_manipulation_targetAtFixation,jsons/ah.json,http://35.173.220.167/DepthDuration/v2_depth_duration_MTurk/v2_DepthDuration_HTML.html#1,1,1150,643,1366,768,9-7-2021,14-55-22,127,depth_duration_stimuli/000414_2014-06-04_19-49-13_260595134347_rgbf000044-resize_0/000414_2014-06-04_19-49-13_260595134347_rgbf000044-resize_0-target.png,250,4.329,2.7432000000000003,2980,241,feet,1149535,1196883,25,Man
323,665311,DepthScenes,duration_manipulation_targetAtFixation,jsons/ah.json,http://35.173.220.167/DepthDuration/v2_depth_duration_MTurk/v2_DepthDuration_HTML.html#1,1,1150,643,1366,768,9-7-2021,14-55-22,132,depth_duration_stimuli/001235_2014-06-17_16-37-36_260595134347_rgbf000084-resize_4/001235_2014-06-17_16-37-36_260595134347_rgbf000084-resize_4-target.png,250,3.6605,2.4384,2528,242,feet,1149535,1196883,25,Man
324,665311,DepthScenes,duration_manipulation_targetAtFixation,jsons/ah.json,http://35.173.220.167/DepthDuration/v2_depth_duration_MTurk/v2_DepthDuration_HTML.html#1,1,1150,643,1366,768,9-7-2021,14-55-22,133,depth_duration_stimuli/001650_2014-06-20_12-09-00_260595134347_rgbf000087-resize_3/001650_2014-06-20_12-09-00_260595134347_rgbf000087-resize_3-target.png,250,1.9505,1.2192,2835,243,feet,1149535,1196883,25,Man
325,665311,DepthScenes,duration_manipulation_targetAtFixation,jsons/ah.json,http://35.173.220.167/DepthDuration/v2_depth_duration_MTurk/v2_DepthDuration_HTML.html#1,1,1150,643,1366,768,9-7-2021,14-55-22,134,depth_duration_stimuli/001516_2014-06-20_16-25-09_260595134347_rgbf000076-resize_2/001516_2014-06-20_16-25-09_260595134347_rgbf000076-resize_2-target.png,250,1.7445,2.7432000000000003,3137,238,feet,1149535,1196883,25,Man
327,665311,DepthScenes,duration_manipulation_targetAtFixation,jsons/ah.json,http://35.173.220.167/DepthDuration/v2_depth_duration_MTurk/v2_DepthDuration_HTML.html#1,1,1150,643,1366,768,9-7-2021,14-55-22,136,depth_duration_stimuli/000878_2014-06-08_22-52-45_260595134347_rgbf000045-resize_2/000878_2014-06-08_22-52-45_260595134347_rgbf000045-resize_2-target.png,250,2.092,2.7432000000000003,3762,245,feet,1149535,1196883,25,Man
335,665311,DepthScenes,duration_manipulation_targetAtFixation,jsons/ah.json,http://35.173.220.167/DepthDuration/v2_depth_duration_MTurk/v2_DepthDuration_HTML.html#1,1,1150,643,1366,768,9-7-2021,14-55-22,144,depth_duration_stimuli/001032_2014-06-08_13-23-17_260595134347_rgbf000021-resize_3/001032_2014-06-08_13-23-17_260595134347_rgbf000021-resize_3-target.png,250,3.2725,2.7432000000000003,2964,258,feet,1149535,1196883,25,Man
339,665311,DepthScenes,duration_manipulation_targetAtFixation,jsons/ah.json,http://35.173.220.167/DepthDuration/v2_depth_duration_MTurk/v2_DepthDuration_HTML.html#1,1,1150,643,1366,768,9-7-2021,14-55-22,148,depth_duration_stimuli/002153_2014-06-25_21-27-18_260595134347_rgbf000038-resize_5/002153_2014-06-25_21-27-18_260595134347_rgbf000038-resize_5-target.png,250,2.505,2.4384,2835,241,feet,1149535,1196883,25,Man
344,665311,DepthScenes,duration_manipulation_targetAtFixation,jsons/ah.json,http://35.173.220.167/DepthDuration/v2_depth_duration_MTurk/v2_DepthDuration_HTML.html#1,1,1150,643,1366,768,9-7-2021,14-55-22,153,depth_duration_stimuli/001289_2014-06-16_16-25-52_260595134347_rgbf000067-resize_1/001289_2014-06-16_16-25-52_260595134347_rgbf000067-resize_1-target.png,250,1.8835,1.524,2721,241,feet,1149535,1196883,25,Man
345,665311,DepthScenes,duration_manipulation_targetAtFixation,jsons/ah.json,http://35.173.220.167/DepthDuration/v2_depth_duration_MTurk/v2_DepthDuration_HTML.html#1,1,1150,643,1366,768,9-7-2021,14-55-22,154,depth_duration_stimuli/003292_2014-05-14_21-53-49_094959634447_rgbf000100-resize_2/003292_2014-05-14_21-53-49_094959634447_rgbf000100-resize_2-target.png,250,3.4815,1.2192,4102,249,feet,1149535,1196883,25,Man
352,665311,DepthScenes,duration_manipulation_targetAtFixation,jsons/ah.json,http://35.173.220.167/DepthDuration/v2_depth_duration_MTurk/v2_DepthDuration_HTML.html#1,1,1150,643,1366,768,9-7-2021,14-55-22,161,depth_duration_stimuli/002460_2014-06-28_20-35-43_260595134347_rgbf000028-resize_4/002460_2014-06-28_20-35-43_260595134347_rgbf000028-resize_4-target.png,250,2.269,2.1336,2963,254,feet,1149535,1196883,25,Man
355,665311,DepthScenes,duration_manipulation_targetAtFixation,jsons/ah.json,http://35.173.220.167/DepthDuration/v2_depth_duration_MTurk/v2_DepthDuration_HTML.html#1,1,1150,643,1366,768,9-7-2021,14-55-22,164,depth_duration_stimuli/000521_2014-06-08_13-34-35_260595134347_rgbf000191-resize_2/000521_2014-06-08_13-34-35_260595134347_rgbf000191-resize_2-target.png,250,3.0385,2.4384,3025,251,feet,1149535,1196883,25,Man
357,665311,DepthScenes,duration_manipulation_targetAtFixation,jsons/ah.json,http://35.173.220.167/DepthDuration/v2_depth_duration_MTurk/v2_DepthDuration_HTML.html#1,1,1150,643,1366,768,9-7-2021,14-55-22,166,depth_duration_stimuli/000642_2014-06-08_16-59-25_260595134347_rgbf000098-resize_2/000642_2014-06-08_16-59-25_260595134347_rgbf000098-resize_2-target.png,250,2.8815,2.1336,3201,244,feet,1149535,1196883,25,Man
362,665311,DepthScenes,duration_manipulation_targetAtFixation,jsons/ah.json,http://35.173.220.167/DepthDuration/v2_depth_duration_MTurk/v2_DepthDuration_HTML.html#1,1,1150,643,1366,768,9-7-2021,14-55-22,171,depth_duration_stimuli/003495_2014-05-21_16-01-51_094959634447_rgbf000100-resize_3/003495_2014-05-21_16-01-51_094959634447_rgbf000100-resize_3-target.png,250,1.6255,1.524,2537,260,feet,1149535,1196883,25,Man
370,665311,DepthScenes,duration_manipulation_targetAtFixation,jsons/ah.json,http://35.173.220.167/DepthDuration/v2_depth_duration_MTurk/v2_DepthDuration_HTML.html#1,1,1150,643,1366,768,9-7-2021,14-55-22,179,depth_duration_stimuli/000505_2014-06-08_23-03-23_260595134347_rgbf000091-resize_0/000505_2014-06-08_23-03-23_260595134347_rgbf000091-resize_0-target.png,250,3.3105,2.4384,4142,251,feet,1149535,1196883,25,Man
371,665311,DepthScenes,duration_manipulation_targetAtFixation,jsons/ah.json,http://35.173.220.167/DepthDuration/v2_depth_duration_MTurk/v2_DepthDuration_HTML.html#1,1,1150,643,1366,768,9-7-2021,14-55-22,180,depth_duration_stimuli/000556_2014-06-09_22-42-56_260595134347_rgbf000214-resize_1/000556_2014-06-09_22-42-56_260595134347_rgbf000214-resize_1-target.png,250,4.8415,2.1336,3061,240,feet,1149535,1196883,25,Man
380,665311,DepthScenes,duration_manipulation_targetAtFixation,jsons/ah.json,http://35.173.220.167/DepthDuration/v2_depth_duration_MTurk/v2_DepthDuration_HTML.html#1,1,1150,643,1366,768,9-7-2021,14-55-22,189,depth_duration_stimuli/002279_2014-06-28_18-55-32_260595134347_rgbf000040-resize_5/002279_2014-06-28_18-55-32_260595134347_rgbf000040-resize_5-target.png,250,1.5043333333333,2.4384,2901,253,feet,1149535,1196883,25,Man
381,665311,DepthScenes,duration_manipulation_targetAtFixation,jsons/ah.json,http://35.173.220.167/DepthDuration/v2_depth_duration_MTurk/v2_DepthDuration_HTML.html#1,1,1150,643,1366,768,9-7-2021,14-55-22,190,depth_duration_stimuli/001094_2014-06-15_17-36-00_260595134347_rgbf000205-resize_0/001094_2014-06-15_17-36-00_260595134347_rgbf000205-resize_0-target.png,250,4.2175,1.524,3549,244,feet,1149535,1196883,25,Man
383,665311,DepthScenes,duration_manipulation_targetAtFixation,jsons/ah.json,http://35.173.220.167/DepthDuration/v2_depth_duration_MTurk/v2_DepthDuration_HTML.html#1,1,1150,643,1366,768,9-7-2021,14-55-22,192,depth_duration_stimuli/000447_2014-06-08_16-15-46_260595134347_rgbf000130-resize_1/000447_2014-06-08_16-15-46_260595134347_rgbf000130-resize_1-target.png,250,4.479,2.4384,2747,261,feet,1149535,1196883,25,Man
388,401808,DepthScenes,duration_manipulation_targetAtFixation,jsons/al_3.json,http://35.173.220.167/DepthDuration/v2_depth_duration_MTurk/v2_DepthDuration_HTML.html#47,47,1366,768,1366,768,9-5-2021,8-5-19,5,depth_duration_stimuli/002425_2014-06-28_20-27-29_260595134347_rgbf000031-resize_8/002425_2014-06-28_20-27-29_260595134347_rgbf000031-resize_8-target.png,250,3.896,2.7432000000000003,3189,238,feet,664040,772718,36,Man
391,401808,DepthScenes,duration_manipulation_targetAtFixation,jsons/al_3.json,http://35.173.220.167/DepthDuration/v2_depth_duration_MTurk/v2_DepthDuration_HTML.html#47,47,1366,768,1366,768,9-5-2021,8-5-19,8,depth_duration_stimuli/002365_2014-06-28_20-11-21_260595134347_rgbf000102-resize_1/002365_2014-06-28_20-11-21_260595134347_rgbf000102-resize_1-target.png,250,4.013,4.8768,2732,246,feet,664040,772718,36,Man
393,401808,DepthScenes,duration_manipulation_targetAtFixation,jsons/al_3.json,http://35.173.220.167/DepthDuration/v2_depth_duration_MTurk/v2_DepthDuration_HTML.html#47,47,1366,768,1366,768,9-5-2021,8-5-19,10,depth_duration_stimuli/001570_2014-06-20_17-21-09_260595134347_rgbf000135-resize_4/001570_2014-06-20_17-21-09_260595134347_rgbf000135-resize_4-target.png,250,4.467,4.2672,2441,258,feet,664040,772718,36,Man
395,401808,DepthScenes,duration_manipulation_targetAtFixation,jsons/al_3.json,http://35.173.220.167/DepthDuration/v2_depth_duration_MTurk/v2_DepthDuration_HTML.html#47,47,1366,768,1366,768,9-5-2021,8-5-19,12,depth_duration_stimuli/000555_2014-06-09_22-42-23_260595134347_rgbf000037-resize_4/000555_2014-06-09_22-42-23_260595134347_rgbf000037-resize_4-target.png,250,1.9765,1.524,2308,257,feet,664040,772718,36,Man
401,401808,DepthScenes,duration_manipulation_targetAtFixation,jsons/al_3.json,http://35.173.220.167/DepthDuration/v2_depth_duration_MTurk/v2_DepthDuration_HTML.html#47,47,1366,768,1366,768,9-5-2021,8-5-19,18,depth_duration_stimuli/001516_2014-06-20_16-25-09_260595134347_rgbf000076-resize_2/001516_2014-06-20_16-25-09_260595134347_rgbf000076-resize_2-target.png,250,1.7445,1.8288000000000002,2752,238,feet,664040,772718,36,Man
406,401808,DepthScenes,duration_manipulation_targetAtFixation,jsons/al_3.json,http://35.173.220.167/DepthDuration/v2_depth_duration_MTurk/v2_DepthDuration_HTML.html#47,47,1366,768,1366,768,9-5-2021,8-5-19,23,depth_duration_stimuli/002568_2014-06-24_13-59-21_094959634447_rgbf000062-resize_4/002568_2014-06-24_13-59-21_094959634447_rgbf000062-resize_4-target.png,250,3.015,2.1336,2349,248,feet,664040,772718,36,Man
417,401808,DepthScenes,duration_manipulation_targetAtFixation,jsons/al_3.json,http://35.173.220.167/DepthDuration/v2_depth_duration_MTurk/v2_DepthDuration_HTML.html#47,47,1366,768,1366,768,9-5-2021,8-5-19,34,depth_duration_stimuli/000635_2014-06-08_16-38-42_260595134347_rgbf000106-resize_1/000635_2014-06-08_16-38-42_260595134347_rgbf000106-resize_1-target.png,250,2.074,1.2192,3269,249,feet,664040,772718,36,Man
419,401808,DepthScenes,duration_manipulation_targetAtFixation,jsons/al_3.json,http://35.173.220.167/DepthDuration/v2_depth_duration_MTurk/v2_DepthDuration_HTML.html#47,47,1366,768,1366,768,9-5-2021,8-5-19,36,depth_duration_stimuli/003495_2014-05-21_16-01-51_094959634447_rgbf000100-resize_3/003495_2014-05-21_16-01-51_094959634447_rgbf000100-resize_3-target.png,250,1.6255,0.9144000000000001,2046,250,feet,664040,772718,36,Man
421,401808,DepthScenes,duration_manipulation_targetAtFixation,jsons/al_3.json,http://35.173.220.167/DepthDuration/v2_depth_duration_MTurk/v2_DepthDuration_HTML.html#47,47,1366,768,1366,768,9-5-2021,8-5-19,38,depth_duration_stimuli/001815_2014-06-26_20-52-55_260595134347_rgbf000020-resize_0/001815_2014-06-26_20-52-55_260595134347_rgbf000020-resize_0-target.png,250,3.3865,3.3528000000000002,2764,250,feet,664040,772718,36,Man
424,401808,DepthScenes,duration_manipulation_targetAtFixation,jsons/al_3.json,http://35.173.220.167/DepthDuration/v2_depth_duration_MTurk/v2_DepthDuration_HTML.html#47,47,1366,768,1366,768,9-5-2021,8-5-19,41,depth_duration_stimuli/000414_2014-06-04_19-49-13_260595134347_rgbf000044-resize_0/000414_2014-06-04_19-49-13_260595134347_rgbf000044-resize_0-target.png,250,4.329,3.9624,2147,251,feet,664040,772718,36,Man
426,401808,DepthScenes,duration_manipulation_targetAtFixation,jsons/al_3.json,http://35.173.220.167/DepthDuration/v2_depth_duration_MTurk/v2_DepthDuration_HTML.html#47,47,1366,768,1366,768,9-5-2021,8-5-19,43,depth_duration_stimuli/001806_2014-06-26_20-50-20_260595134347_rgbf000091-resize_1/001806_2014-06-26_20-50-20_260595134347_rgbf000091-resize_1-target.png,250,2.7305,1.2192,2786,243,feet,664040,772718,36,Man
433,401808,DepthScenes,duration_manipulation_targetAtFixation,jsons/al_3.json,http://35.173.220.167/DepthDuration/v2_depth_duration_MTurk/v2_DepthDuration_HTML.html#47,47,1366,768,1366,768,9-5-2021,8-5-19,50,depth_duration_stimuli/001167_2014-06-17_15-38-07_260595134347_rgbf000108-resize_0/001167_2014-06-17_15-38-07_260595134347_rgbf000108-resize_0-target.png,250,1.8505,0.6096,1957,249,feet,664040,772718,36,Man
439,401808,DepthScenes,duration_manipulation_targetAtFixation,jsons/al_3.json,http://35.173.220.167/DepthDuration/v2_depth_duration_MTurk/v2_DepthDuration_HTML.html#47,47,1366,768,1366,768,9-5-2021,8-5-19,56,depth_duration_stimuli/000469_2014-06-09_19-42-10_260595134347_rgbf000081-resize_1/000469_2014-06-09_19-42-10_260595134347_rgbf000081-resize_1-target.png,250,1.652,0.9144000000000001,1735,238,feet,664040,772718,36,Man
442,401808,DepthScenes,duration_manipulation_targetAtFixation,jsons/al_3.json,http://35.173.220.167/DepthDuration/v2_depth_duration_MTurk/v2_DepthDuration_HTML.html#47,47,1366,768,1366,768,9-5-2021,8-5-19,59,depth_duration_stimuli/002579_2014-06-24_14-08-03_094959634447_rgbf000061-resize_2/002579_2014-06-24_14-08-03_094959634447_rgbf000061-resize_2-target.png,250,2.223125,0.9144000000000001,1777,249,feet,664040,772718,36,Man
444,401808,DepthScenes,duration_manipulation_targetAtFixation,jsons/al_3.json,http://35.173.220.167/DepthDuration/v2_depth_duration_MTurk/v2_DepthDuration_HTML.html#47,47,1366,768,1366,768,9-5-2021,8-5-19,61,depth_duration_stimuli/003129_2014-05-12_10-48-10_094959634447_rgbf000100-resize_0/003129_2014-05-12_10-48-10_094959634447_rgbf000100-resize_0-target.png,250,4.9305,3.3528000000000002,2800,250,feet,664040,772718,36,Man
447,401808,DepthScenes,duration_manipulation_targetAtFixation,jsons/al_3.json,http://35.173.220.167/DepthDuration/v2_depth_duration_MTurk/v2_DepthDuration_HTML.html#47,47,1366,768,1366,768,9-5-2021,8-5-19,64,depth_duration_stimuli/001584_2014-06-20_11-07-43_260595134347_rgbf000002-resize_1/001584_2014-06-20_11-07-43_260595134347_rgbf000002-resize_1-target.png,250,3.53,1.8288000000000002,1860,248,feet,664040,772718,36,Man
450,401808,DepthScenes,duration_manipulation_targetAtFixation,jsons/al_3.json,http://35.173.220.167/DepthDuration/v2_depth_duration_MTurk/v2_DepthDuration_HTML.html#47,47,1366,768,1366,768,9-5-2021,8-5-19,67,depth_duration_stimuli/000691_2014-06-08_13-08-50_260595134347_rgbf000132-resize_3/000691_2014-06-08_13-08-50_260595134347_rgbf000132-resize_3-target.png,250,4.153,3.3528000000000002,3956,249,feet,664040,772718,36,Man
453,401808,DepthScenes,duration_manipulation_targetAtFixation,jsons/al_3.json,http://35.173.220.167/DepthDuration/v2_depth_duration_MTurk/v2_DepthDuration_HTML.html#47,47,1366,768,1366,768,9-5-2021,8-5-19,70,depth_duration_stimuli/001449_2014-06-19_17-01-27_260595134347_rgbf000116-resize_2/001449_2014-06-19_17-01-27_260595134347_rgbf000116-resize_2-target.png,250,3.452,2.4384,3508,254,feet,664040,772718,36,Man
455,401808,DepthScenes,duration_manipulation_targetAtFixation,jsons/al_3.json,http://35.173.220.167/DepthDuration/v2_depth_duration_MTurk/v2_DepthDuration_HTML.html#47,47,1366,768,1366,768,9-5-2021,8-5-19,72,depth_duration_stimuli/000810_2014-06-08_17-20-01_260595134347_rgbf000105-resize_0/000810_2014-06-08_17-20-01_260595134347_rgbf000105-resize_0-target.png,250,1.4865,1.524,1883,245,feet,664040,772718,36,Man
462,401808,DepthScenes,duration_manipulation_targetAtFixation,jsons/al_3.json,http://35.173.220.167/DepthDuration/v2_depth_duration_MTurk/v2_DepthDuration_HTML.html#47,47,1366,768,1366,768,9-5-2021,8-5-19,79,depth_duration_stimuli/001828_2014-06-26_21-40-03_260595134347_rgbf000024-resize_0/001828_2014-06-26_21-40-03_260595134347_rgbf000024-resize_0-target.png,250,4.826,3.3528000000000002,3170,245,feet,664040,772718,36,Man
466,401808,DepthScenes,duration_manipulation_targetAtFixation,jsons/al_3.json,http://35.173.220.167/DepthDuration/v2_depth_duration_MTurk/v2_DepthDuration_HTML.html#47,47,1366,768,1366,768,9-5-2021,8-5-19,83,depth_duration_stimuli/000830_2014-06-04_19-49-31_260595134347_rgbf000096-resize_2/000830_2014-06-04_19-49-31_260595134347_rgbf000096-resize_2-target.png,250,2.6353333333333,1.2192,2010,254,feet,664040,772718,36,Man
467,401808,DepthScenes,duration_manipulation_targetAtFixation,jsons/al_3.json,http://35.173.220.167/DepthDuration/v2_depth_duration_MTurk/v2_DepthDuration_HTML.html#47,47,1366,768,1366,768,9-5-2021,8-5-19,84,depth_duration_stimuli/001056_2014-06-08_18-46-44_260595134347_rgbf000068-resize_0/001056_2014-06-08_18-46-44_260595134347_rgbf000068-resize_0-target.png,250,2.6625,2.4384,2350,250,feet,664040,772718,36,Man
470,401808,DepthScenes,duration_manipulation_targetAtFixation,jsons/al_3.json,http://35.173.220.167/DepthDuration/v2_depth_duration_MTurk/v2_DepthDuration_HTML.html#47,47,1366,768,1366,768,9-5-2021,8-5-19,87,depth_duration_stimuli/000758_2014-06-08_22-05-08_260595134347_rgbf000085-resize_0/000758_2014-06-08_22-05-08_260595134347_rgbf000085-resize_0-target.png,250,3.381,3.6576000000000004,2167,243,feet,664040,772718,36,Man
482,401808,DepthScenes,duration_manipulation_targetAtFixation,jsons/al_3.json,http://35.173.220.167/DepthDuration/v2_depth_duration_MTurk/v2_DepthDuration_HTML.html#47,47,1366,768,1366,768,9-5-2021,8-5-19,99,depth_duration_stimuli/002468_2014-06-28_20-38-39_260595134347_rgbf000045-resize_1/002468_2014-06-28_20-38-39_260595134347_rgbf000045-resize_1-target.png,250,1.956,4.2672,2297,238,feet,664040,772718,36,Man
485,401808,DepthScenes,duration_manipulation_targetAtFixation,jsons/al_3.json,http://35.173.220.167/DepthDuration/v2_depth_duration_MTurk/v2_DepthDuration_HTML.html#47,47,1366,768,1366,768,9-5-2021,8-5-19,102,depth_duration_stimuli/002467_2014-06-28_20-38-07_260595134347_rgbf000026-resize_2/002467_2014-06-28_20-38-07_260595134347_rgbf000026-resize_2-target.png,250,4.742,3.6576000000000004,2166,264,feet,664040,772718,36,Man
492,401808,DepthScenes,duration_manipulation_targetAtFixation,jsons/al_3.json,http://35.173.220.167/DepthDuration/v2_depth_duration_MTurk/v2_DepthDuration_HTML.html#47,47,1366,768,1366,768,9-5-2021,8-5-19,109,depth_duration_stimuli/001618_2014-06-20_11-37-31_260595134347_rgbf000027-resize_3/001618_2014-06-20_11-37-31_260595134347_rgbf000027-resize_3-target.png,250,1.8725,0.9144000000000001,1869,249,feet,664040,772718,36,Man
498,401808,DepthScenes,duration_manipulation_targetAtFixation,jsons/al_3.json,http://35.173.220.167/DepthDuration/v2_depth_duration_MTurk/v2_DepthDuration_HTML.html#47,47,1366,768,1366,768,9-5-2021,8-5-19,115,depth_duration_stimuli/000665_2014-06-09_20-42-35_260595134347_rgbf000110-resize_1/000665_2014-06-09_20-42-35_260595134347_rgbf000110-resize_1-target.png,250,3.057,2.1336,2872,249,feet,664040,772718,36,Man
499,401808,DepthScenes,duration_manipulation_targetAtFixation,jsons/al_3.json,http://35.173.220.167/DepthDuration/v2_depth_duration_MTurk/v2_DepthDuration_HTML.html#47,47,1366,768,1366,768,9-5-2021,8-5-19,116,depth_duration_stimuli/000436_2014-06-09_22-25-11_260595134347_rgbf000137-resize_1/000436_2014-06-09_22-25-11_260595134347_rgbf000137-resize_1-target.png,250,4.0705,3.9624,2496,249,feet,664040,772718,36,Man
501,401808,DepthScenes,duration_manipulation_targetAtFixation,jsons/al_3.json,http://35.173.220.167/DepthDuration/v2_depth_duration_MTurk/v2_DepthDuration_HTML.html#47,47,1366,768,1366,768,9-5-2021,8-5-19,118,depth_duration_stimuli/002750_2014-06-22_19-08-03_094959634447_rgbf000094-resize_4/002750_2014-06-22_19-08-03_094959634447_rgbf000094-resize_4-target.png,250,2.354,2.4384,2332,263,feet,664040,772718,36,Man
502,401808,DepthScenes,duration_manipulation_targetAtFixation,jsons/al_3.json,http://35.173.220.167/DepthDuration/v2_depth_duration_MTurk/v2_DepthDuration_HTML.html#47,47,1366,768,1366,768,9-5-2021,8-5-19,119,depth_duration_stimuli/000740_2014-06-08_18-46-23_260595134347_rgbf000049-resize_6/000740_2014-06-08_18-46-23_260595134347_rgbf000049-resize_6-target.png,250,1.687,1.8288000000000002,2594,249,feet,664040,772718,36,Man
507,401808,DepthScenes,duration_manipulation_targetAtFixation,jsons/al_3.json,http://35.173.220.167/DepthDuration/v2_depth_duration_MTurk/v2_DepthDuration_HTML.html#47,47,1366,768,1366,768,9-5-2021,8-5-19,124,depth_duration_stimuli/003423_2014-05-21_10-23-26_094959634447_rgbf002665-resize_2/003423_2014-05-21_10-23-26_094959634447_rgbf002665-resize_2-target.png,250,3.2575,3.6576000000000004,2693,249,feet,664040,772718,36,Man
518,401808,DepthScenes,duration_manipulation_targetAtFixation,jsons/al_3.json,http://35.173.220.167/DepthDuration/v2_depth_duration_MTurk/v2_DepthDuration_HTML.html#47,47,1366,768,1366,768,9-5-2021,8-5-19,135,depth_duration_stimuli/000368_2014-06-09_15-53-01_260595134347_rgbf000155-resize_2/000368_2014-06-09_15-53-01_260595134347_rgbf000155-resize_2-target.png,250,2.486,1.524,2947,242,feet,664040,772718,36,Man
523,401808,DepthScenes,duration_manipulation_targetAtFixation,jsons/al_3.json,http://35.173.220.167/DepthDuration/v2_depth_duration_MTurk/v2_DepthDuration_HTML.html#47,47,1366,768,1366,768,9-5-2021,8-5-19,140,depth_duration_stimuli/001392_2014-06-19_16-07-59_260595134347_rgbf000046-resize_1/001392_2014-06-19_16-07-59_260595134347_rgbf000046-resize_1-target.png,250,4.135,2.7432000000000003,5338,247,feet,664040,772718,36,Man
524,401808,DepthScenes,duration_manipulation_targetAtFixation,jsons/al_3.json,http://35.173.220.167/DepthDuration/v2_depth_duration_MTurk/v2_DepthDuration_HTML.html#47,47,1366,768,1366,768,9-5-2021,8-5-19,141,depth_duration_stimuli/001264_2014-06-16_16-10-23_260595134347_rgbf000109-resize_1/001264_2014-06-16_16-10-23_260595134347_rgbf000109-resize_1-target.png,250,2.9665,1.2192,2076,249,feet,664040,772718,36,Man
525,401808,DepthScenes,duration_manipulation_targetAtFixation,jsons/al_3.json,http://35.173.220.167/DepthDuration/v2_depth_duration_MTurk/v2_DepthDuration_HTML.html#47,47,1366,768,1366,768,9-5-2021,8-5-19,142,depth_duration_stimuli/003490_2014-05-21_15-50-11_094959634447_rgbf000101-resize_3/003490_2014-05-21_15-50-11_094959634447_rgbf000101-resize_3-target.png,250,3.6445,2.1336,2532,257,feet,664040,772718,36,Man
539,401808,DepthScenes,duration_manipulation_targetAtFixation,jsons/al_3.json,http://35.173.220.167/DepthDuration/v2_depth_duration_MTurk/v2_DepthDuration_HTML.html#47,47,1366,768,1366,768,9-5-2021,8-5-19,156,depth_duration_stimuli/003288_2014-05-14_21-50-30_094959634447_rgbf000028-resize_3/003288_2014-05-14_21-50-30_094959634447_rgbf000028-resize_3-target.png,250,3.877,2.1336,3041,249,feet,664040,772718,36,Man
540,401808,DepthScenes,duration_manipulation_targetAtFixation,jsons/al_3.json,http://35.173.220.167/DepthDuration/v2_depth_duration_MTurk/v2_DepthDuration_HTML.html#47,47,1366,768,1366,768,9-5-2021,8-5-19,157,depth_duration_stimuli/000682_2014-06-08_23-14-58_260595134347_rgbf000041-resize_5/000682_2014-06-08_23-14-58_260595134347_rgbf000041-resize_5-target.png,250,2.724,1.8288000000000002,2346,251,feet,664040,772718,36,Man
541,401808,DepthScenes,duration_manipulation_targetAtFixation,jsons/al_3.json,http://35.173.220.167/DepthDuration/v2_depth_duration_MTurk/v2_DepthDuration_HTML.html#47,47,1366,768,1366,768,9-5-2021,8-5-19,158,depth_duration_stimuli/002989_2014-06-15_12-25-03_094959634447_rgbf000150-resize_3/002989_2014-06-15_12-25-03_094959634447_rgbf000150-resize_3-target.png,250,4.1975,3.9624,1986,245,feet,664040,772718,36,Man
542,401808,DepthScenes,duration_manipulation_targetAtFixation,jsons/al_3.json,http://35.173.220.167/DepthDuration/v2_depth_duration_MTurk/v2_DepthDuration_HTML.html#47,47,1366,768,1366,768,9-5-2021,8-5-19,159,depth_duration_stimuli/002272_2014-06-28_18-53-56_260595134347_rgbf000067-resize_2/002272_2014-06-28_18-53-56_260595134347_rgbf000067-resize_2-target.png,250,1.138,1.2192,1844,250,feet,664040,772718,36,Man
544,401808,DepthScenes,duration_manipulation_targetAtFixation,jsons/al_3.json,http://35.173.220.167/DepthDuration/v2_depth_duration_MTurk/v2_DepthDuration_HTML.html#47,47,1366,768,1366,768,9-5-2021,8-5-19,161,depth_duration_stimuli/000720_2014-06-08_18-37-27_260595134347_rgbf000203-resize_4/000720_2014-06-08_18-37-27_260595134347_rgbf000203-resize_4-target.png,250,1.558,1.524,1935,256,feet,664040,772718,36,Man
551,401808,DepthScenes,duration_manipulation_targetAtFixation,jsons/al_3.json,http://35.173.220.167/DepthDuration/v2_depth_duration_MTurk/v2_DepthDuration_HTML.html#47,47,1366,768,1366,768,9-5-2021,8-5-19,168,depth_duration_stimuli/000878_2014-06-08_22-52-45_260595134347_rgbf000045-resize_2/000878_2014-06-08_22-52-45_260595134347_rgbf000045-resize_2-target.png,250,2.092,1.524,1914,249,feet,664040,772718,36,Man
557,401808,DepthScenes,duration_manipulation_targetAtFixation,jsons/al_3.json,http://35.173.220.167/DepthDuration/v2_depth_duration_MTurk/v2_DepthDuration_HTML.html#47,47,1366,768,1366,768,9-5-2021,8-5-19,174,depth_duration_stimuli/000906_2014-06-08_13-35-43_260595134347_rgbf000155-resize_1/000906_2014-06-08_13-35-43_260595134347_rgbf000155-resize_1-target.png,250,2.849,3.048,2131,255,feet,664040,772718,36,Man
560,401808,DepthScenes,duration_manipulation_targetAtFixation,jsons/al_3.json,http://35.173.220.167/DepthDuration/v2_depth_duration_MTurk/v2_DepthDuration_HTML.html#47,47,1366,768,1366,768,9-5-2021,8-5-19,177,depth_duration_stimuli/000692_2014-06-08_13-09-42_260595134347_rgbf000199-resize_2/000692_2014-06-08_13-09-42_260595134347_rgbf000199-resize_2-target.png,250,3.661,3.6576000000000004,2344,249,feet,664040,772718,36,Man
566,401808,DepthScenes,duration_manipulation_targetAtFixation,jsons/al_3.json,http://35.173.220.167/DepthDuration/v2_depth_duration_MTurk/v2_DepthDuration_HTML.html#47,47,1366,768,1366,768,9-5-2021,8-5-19,183,depth_duration_stimuli/001150_2014-06-17_15-27-34_260595134347_rgbf000108-resize_2/001150_2014-06-17_15-27-34_260595134347_rgbf000108-resize_2-target.png,250,4.0325,2.1336,2173,249,feet,664040,772718,36,Man
567,401808,DepthScenes,duration_manipulation_targetAtFixation,jsons/al_3.json,http://35.173.220.167/DepthDuration/v2_depth_duration_MTurk/v2_DepthDuration_HTML.html#47,47,1366,768,1366,768,9-5-2021,8-5-19,184,depth_duration_stimuli/002039_2014-06-24_20-22-38_260595134347_rgbf000084-resize_1/002039_2014-06-24_20-22-38_260595134347_rgbf000084-resize_1-target.png,250,4.408,4.2672,2288,240,feet,664040,772718,36,Man
570,401808,DepthScenes,duration_manipulation_targetAtFixation,jsons/al_3.json,http://35.173.220.167/DepthDuration/v2_depth_duration_MTurk/v2_DepthDuration_HTML.html#47,47,1366,768,1366,768,9-5-2021,8-5-19,187,depth_duration_stimuli/002199_2014-06-28_18-33-56_260595134347_rgbf000074-resize_0/002199_2014-06-28_18-33-56_260595134347_rgbf000074-resize_0-target.png,250,1.996,0.9144000000000001,1856,264,feet,664040,772718,36,Man
571,401808,DepthScenes,duration_manipulation_targetAtFixation,jsons/al_3.json,http://35.173.220.167/DepthDuration/v2_depth_duration_MTurk/v2_DepthDuration_HTML.html#47,47,1366,768,1366,768,9-5-2021,8-5-19,188,depth_duration_stimuli/000137_2014-05-20_17-04-49_260595134347_rgbf000120-resize_1/000137_2014-05-20_17-04-49_260595134347_rgbf000120-resize_1-target.png,250,3.786,2.4384,2300,252,feet,664040,772718,36,Man
576,811430,DepthScenes,duration_manipulation_targetAtFixation,jsons/af.json,http://34.238.49.31/DepthDuration/v2_depth_duration_MTurk/v2_DepthDuration_HTML.html#17,17,1571,864,1920,1080,9-19-2021,8-12-58,1,depth_duration_stimuli/000739_2014-06-08_18-45-58_260595134347_rgbf000068-resize_1/000739_2014-06-08_18-45-58_260595134347_rgbf000068-resize_1-target.png,250,3.534,1.524,4052,250,feet,690249,782584,26,Woman
577,811430,DepthScenes,duration_manipulation_targetAtFixation,jsons/af.json,http://34.238.49.31/DepthDuration/v2_depth_duration_MTurk/v2_DepthDuration_HTML.html#17,17,1571,864,1920,1080,9-19-2021,8-12-58,2,depth_duration_stimuli/002340_2014-06-28_20-05-46_260595134347_rgbf000113-resize_0/002340_2014-06-28_20-05-46_260595134347_rgbf000113-resize_0-target.png,250,2.4735,1.524,2686,249,feet,690249,782584,26,Woman
584,811430,DepthScenes,duration_manipulation_targetAtFixation,jsons/af.json,http://34.238.49.31/DepthDuration/v2_depth_duration_MTurk/v2_DepthDuration_HTML.html#17,17,1571,864,1920,1080,9-19-2021,8-12-58,9,depth_duration_stimuli/001055_2014-06-08_18-45-35_260595134347_rgbf000111-resize_4/001055_2014-06-08_18-45-35_260595134347_rgbf000111-resize_4-target.png,250,2.429,1.2192,3153,249,feet,690249,782584,26,Woman
588,811430,DepthScenes,duration_manipulation_targetAtFixation,jsons/af.json,http://34.238.49.31/DepthDuration/v2_depth_duration_MTurk/v2_DepthDuration_HTML.html#17,17,1571,864,1920,1080,9-19-2021,8-12-58,13,depth_duration_stimuli/000483_2014-06-09_20-41-45_260595134347_rgbf000116-resize_4/000483_2014-06-09_20-41-45_260595134347_rgbf000116-resize_4-target.png,250,1.337,1.524,2788,251,feet,690249,782584,26,Woman
589,811430,DepthScenes,duration_manipulation_targetAtFixation,jsons/af.json,http://34.238.49.31/DepthDuration/v2_depth_duration_MTurk/v2_DepthDuration_HTML.html#17,17,1571,864,1920,1080,9-19-2021,8-12-58,14,depth_duration_stimuli/001158_2014-06-17_15-32-16_260595134347_rgbf000138-resize_2/001158_2014-06-17_15-32-16_260595134347_rgbf000138-resize_2-target.png,250,4.5315,1.524,1638,251,feet,690249,782584,26,Woman
590,811430,DepthScenes,duration_manipulation_targetAtFixation,jsons/af.json,http://34.238.49.31/DepthDuration/v2_depth_duration_MTurk/v2_DepthDuration_HTML.html#17,17,1571,864,1920,1080,9-19-2021,8-12-58,15,depth_duration_stimuli/000742_2014-06-08_18-48-09_260595134347_rgbf000164-resize_4/000742_2014-06-08_18-48-09_260595134347_rgbf000164-resize_4-target.png,250,4.632,2.4384,2405,250,feet,690249,782584,26,Woman
598,811430,DepthScenes,duration_manipulation_targetAtFixation,jsons/af.json,http://34.238.49.31/DepthDuration/v2_depth_duration_MTurk/v2_DepthDuration_HTML.html#17,17,1571,864,1920,1080,9-19-2021,8-12-58,23,depth_duration_stimuli/002425_2014-06-28_20-27-29_260595134347_rgbf000031-resize_8/002425_2014-06-28_20-27-29_260595134347_rgbf000031-resize_8-target.png,250,3.896,2.4384,3151,250,feet,690249,782584,26,Woman
606,811430,DepthScenes,duration_manipulation_targetAtFixation,jsons/af.json,http://34.238.49.31/DepthDuration/v2_depth_duration_MTurk/v2_DepthDuration_HTML.html#17,17,1571,864,1920,1080,9-19-2021,8-12-58,31,depth_duration_stimuli/000943_2014-06-09_19-31-07_260595134347_rgbf000128-resize_1/000943_2014-06-09_19-31-07_260595134347_rgbf000128-resize_1-target.png,250,1.9765,0.9144000000000001,1954,247,feet,690249,782584,26,Woman
617,811430,DepthScenes,duration_manipulation_targetAtFixation,jsons/af.json,http://34.238.49.31/DepthDuration/v2_depth_duration_MTurk/v2_DepthDuration_HTML.html#17,17,1571,864,1920,1080,9-19-2021,8-12-58,42,depth_duration_stimuli/002057_2014-06-24_21-00-13_260595134347_rgbf000120-resize_1/002057_2014-06-24_21-00-13_260595134347_rgbf000120-resize_1-target.png,250,2.967,1.8288000000000002,2983,250,feet,690249,782584,26,Woman
618,811430,DepthScenes,duration_manipulation_targetAtFixation,jsons/af.json,http://34.238.49.31/DepthDuration/v2_depth_duration_MTurk/v2_DepthDuration_HTML.html#17,17,1571,864,1920,1080,9-19-2021,8-12-58,43,depth_duration_stimuli/002953_2014-06-08_17-32-18_094959634447_rgbf000059-resize_5/002953_2014-06-08_17-32-18_094959634447_rgbf000059-resize_5-target.png,250,1.551,1.524,2207,248,feet,690249,782584,26,Woman
628,811430,DepthScenes,duration_manipulation_targetAtFixation,jsons/af.json,http://34.238.49.31/DepthDuration/v2_depth_duration_MTurk/v2_DepthDuration_HTML.html#17,17,1571,864,1920,1080,9-19-2021,8-12-58,53,depth_duration_stimuli/000549_2014-06-08_22-10-24_260595134347_rgbf000247-resize_3/000549_2014-06-08_22-10-24_260595134347_rgbf000247-resize_3-target.png,250,1.841,1.524,2787,251,feet,690249,782584,26,Woman
630,811430,DepthScenes,duration_manipulation_targetAtFixation,jsons/af.json,http://34.238.49.31/DepthDuration/v2_depth_duration_MTurk/v2_DepthDuration_HTML.html#17,17,1571,864,1920,1080,9-19-2021,8-12-58,55,depth_duration_stimuli/000758_2014-06-08_22-05-08_260595134347_rgbf000085-resize_0/000758_2014-06-08_22-05-08_260595134347_rgbf000085-resize_0-target.png,250,3.381,2.1336,1864,257,feet,690249,782584,26,Woman
635,811430,DepthScenes,duration_manipulation_targetAtFixation,jsons/af.json,http://34.238.49.31/DepthDuration/v2_depth_duration_MTurk/v2_DepthDuration_HTML.html#17,17,1571,864,1920,1080,9-19-2021,8-12-58,60,depth_duration_stimuli/001618_2014-06-20_11-37-31_260595134347_rgbf000027-resize_3/001618_2014-06-20_11-37-31_260595134347_rgbf000027-resize_3-target.png,250,1.8725,1.524,2545,250,feet,690249,782584,26,Woman
639,811430,DepthScenes,duration_manipulation_targetAtFixation,jsons/af.json,http://34.238.49.31/DepthDuration/v2_depth_duration_MTurk/v2_DepthDuration_HTML.html#17,17,1571,864,1920,1080,9-19-2021,8-12-58,64,depth_duration_stimuli/000635_2014-06-08_16-38-42_260595134347_rgbf000106-resize_1/000635_2014-06-08_16-38-42_260595134347_rgbf000106-resize_1-target.png,250,2.074,2.4384,3388,247,feet,690249,782584,26,Woman
650,811430,DepthScenes,duration_manipulation_targetAtFixation,jsons/af.json,http://34.238.49.31/DepthDuration/v2_depth_duration_MTurk/v2_DepthDuration_HTML.html#17,17,1571,864,1920,1080,9-19-2021,8-12-58,75,depth_duration_stimuli/003587_2014-05-23_16-48-02_094959634447_rgbf002384-resize_2/003587_2014-05-23_16-48-02_094959634447_rgbf002384-resize_2-target.png,250,1.357,0.3048,1894,249,feet,690249,782584,26,Woman
653,811430,DepthScenes,duration_manipulation_targetAtFixation,jsons/af.json,http://34.238.49.31/DepthDuration/v2_depth_duration_MTurk/v2_DepthDuration_HTML.html#17,17,1571,864,1920,1080,9-19-2021,8-12-58,78,depth_duration_stimuli/002639_2014-06-24_14-51-37_094959634447_rgbf000074-resize_4/002639_2014-06-24_14-51-37_094959634447_rgbf000074-resize_4-target.png,250,4.0375,2.1336,2406,240,feet,690249,782584,26,Woman
657,811430,DepthScenes,duration_manipulation_targetAtFixation,jsons/af.json,http://34.238.49.31/DepthDuration/v2_depth_duration_MTurk/v2_DepthDuration_HTML.html#17,17,1571,864,1920,1080,9-19-2021,8-12-58,82,depth_duration_stimuli/001392_2014-06-19_16-07-59_260595134347_rgbf000046-resize_1/001392_2014-06-19_16-07-59_260595134347_rgbf000046-resize_1-target.png,250,4.135,2.4384,5027,252,feet,690249,782584,26,Woman
659,811430,DepthScenes,duration_manipulation_targetAtFixation,jsons/af.json,http://34.238.49.31/DepthDuration/v2_depth_duration_MTurk/v2_DepthDuration_HTML.html#17,17,1571,864,1920,1080,9-19-2021,8-12-58,84,depth_duration_stimuli/002678_2014-06-13_16-15-32_094959634447_rgbf000151-resize_6/002678_2014-06-13_16-15-32_094959634447_rgbf000151-resize_6-target.png,250,2.183,1.2192,2251,251,feet,690249,782584,26,Woman
660,811430,DepthScenes,duration_manipulation_targetAtFixation,jsons/af.json,http://34.238.49.31/DepthDuration/v2_depth_duration_MTurk/v2_DepthDuration_HTML.html#17,17,1571,864,1920,1080,9-19-2021,8-12-58,85,depth_duration_stimuli/001094_2014-06-15_17-36-00_260595134347_rgbf000205-resize_0/001094_2014-06-15_17-36-00_260595134347_rgbf000205-resize_0-target.png,250,4.2175,2.4384,3262,250,feet,690249,782584,26,Woman
665,811430,DepthScenes,duration_manipulation_targetAtFixation,jsons/af.json,http://34.238.49.31/DepthDuration/v2_depth_duration_MTurk/v2_DepthDuration_HTML.html#17,17,1571,864,1920,1080,9-19-2021,8-12-58,90,depth_duration_stimuli/003292_2014-05-14_21-53-49_094959634447_rgbf000100-resize_2/003292_2014-05-14_21-53-49_094959634447_rgbf000100-resize_2-target.png,250,3.4815,0.9144000000000001,2003,253,feet,690249,782584,26,Woman
669,811430,DepthScenes,duration_manipulation_targetAtFixation,jsons/af.json,http://34.238.49.31/DepthDuration/v2_depth_duration_MTurk/v2_DepthDuration_HTML.html#17,17,1571,864,1920,1080,9-19-2021,8-12-58,94,depth_duration_stimuli/001029_2014-06-08_13-17-57_260595134347_rgbf000065-resize_1/001029_2014-06-08_13-17-57_260595134347_rgbf000065-resize_1-target.png,250,3.0835,1.2192,1939,250,feet,690249,782584,26,Woman
670,811430,DepthScenes,duration_manipulation_targetAtFixation,jsons/af.json,http://34.238.49.31/DepthDuration/v2_depth_duration_MTurk/v2_DepthDuration_HTML.html#17,17,1571,864,1920,1080,9-19-2021,8-12-58,95,depth_duration_stimuli/000682_2014-06-08_23-14-58_260595134347_rgbf000041-resize_5/000682_2014-06-08_23-14-58_260595134347_rgbf000041-resize_5-target.png,250,2.724,1.2192,1695,250,feet,690249,782584,26,Woman
673,811430,DepthScenes,duration_manipulation_targetAtFixation,jsons/af.json,http://34.238.49.31/DepthDuration/v2_depth_duration_MTurk/v2_DepthDuration_HTML.html#17,17,1571,864,1920,1080,9-19-2021,8-12-58,98,depth_duration_stimuli/001235_2014-06-17_16-37-36_260595134347_rgbf000084-resize_4/001235_2014-06-17_16-37-36_260595134347_rgbf000084-resize_4-target.png,250,3.6605,1.524,1717,249,feet,690249,782584,26,Woman
675,811430,DepthScenes,duration_manipulation_targetAtFixation,jsons/af.json,http://34.238.49.31/DepthDuration/v2_depth_duration_MTurk/v2_DepthDuration_HTML.html#17,17,1571,864,1920,1080,9-19-2021,8-12-58,100,depth_duration_stimuli/000555_2014-06-09_22-42-23_260595134347_rgbf000037-resize_4/000555_2014-06-09_22-42-23_260595134347_rgbf000037-resize_4-target.png,250,1.9765,1.2192,2086,251,feet,690249,782584,26,Woman
676,811430,DepthScenes,duration_manipulation_targetAtFixation,jsons/af.json,http://34.238.49.31/DepthDuration/v2_depth_duration_MTurk/v2_DepthDuration_HTML.html#17,17,1571,864,1920,1080,9-19-2021,8-12-58,101,depth_duration_stimuli/000906_2014-06-08_13-35-43_260595134347_rgbf000155-resize_1/000906_2014-06-08_13-35-43_260595134347_rgbf000155-resize_1-target.png,250,2.849,2.1336,4440,250,feet,690249,782584,26,Woman
682,811430,DepthScenes,duration_manipulation_targetAtFixation,jsons/af.json,http://34.238.49.31/DepthDuration/v2_depth_duration_MTurk/v2_DepthDuration_HTML.html#17,17,1571,864,1920,1080,9-19-2021,8-12-58,107,depth_duration_stimuli/002579_2014-06-24_14-08-03_094959634447_rgbf000061-resize_2/002579_2014-06-24_14-08-03_094959634447_rgbf000061-resize_2-target.png,250,2.223125,1.524,3690,250,feet,690249,782584,26,Woman
693,811430,DepthScenes,duration_manipulation_targetAtFixation,jsons/af.json,http://34.238.49.31/DepthDuration/v2_depth_duration_MTurk/v2_DepthDuration_HTML.html#17,17,1571,864,1920,1080,9-19-2021,8-12-58,118,depth_duration_stimuli/001181_2014-06-17_15-50-57_260595134347_rgbf000106-resize_4/001181_2014-06-17_15-50-57_260595134347_rgbf000106-resize_4-target.png,250,4.149,2.1336,2334,249,feet,690249,782584,26,Woman
694,811430,DepthScenes,duration_manipulation_targetAtFixation,jsons/af.json,http://34.238.49.31/DepthDuration/v2_depth_duration_MTurk/v2_DepthDuration_HTML.html#17,17,1571,864,1920,1080,9-19-2021,8-12-58,119,depth_duration_stimuli/003490_2014-05-21_15-50-11_094959634447_rgbf000101-resize_3/003490_2014-05-21_15-50-11_094959634447_rgbf000101-resize_3-target.png,250,3.6445,2.1336,1788,241,feet,690249,782584,26,Woman
696,811430,DepthScenes,duration_manipulation_targetAtFixation,jsons/af.json,http://34.238.49.31/DepthDuration/v2_depth_duration_MTurk/v2_DepthDuration_HTML.html#17,17,1571,864,1920,1080,9-19-2021,8-12-58,121,depth_duration_stimuli/003048_2014-06-15_13-49-43_094959634447_rgbf000150-resize_1/003048_2014-06-15_13-49-43_094959634447_rgbf000150-resize_1-target.png,250,4.0035,2.1336,1816,250,feet,690249,782584,26,Woman
697,811430,DepthScenes,duration_manipulation_targetAtFixation,jsons/af.json,http://34.238.49.31/DepthDuration/v2_depth_duration_MTurk/v2_DepthDuration_HTML.html#17,17,1571,864,1920,1080,9-19-2021,8-12-58,122,depth_duration_stimuli/002750_2014-06-22_19-08-03_094959634447_rgbf000094-resize_4/002750_2014-06-22_19-08-03_094959634447_rgbf000094-resize_4-target.png,250,2.354,1.2192,2205,250,feet,690249,782584,26,Woman
706,811430,DepthScenes,duration_manipulation_targetAtFixation,jsons/af.json,http://34.238.49.31/DepthDuration/v2_depth_duration_MTurk/v2_DepthDuration_HTML.html#17,17,1571,864,1920,1080,9-19-2021,8-12-58,131,depth_duration_stimuli/000866_2014-06-09_20-45-42_260595134347_rgbf000139-resize_1/000866_2014-06-09_20-45-42_260595134347_rgbf000139-resize_1-target.png,250,3.2155,1.524,2151,256,feet,690249,782584,26,Woman
707,811430,DepthScenes,duration_manipulation_targetAtFixation,jsons/af.json,http://34.238.49.31/DepthDuration/v2_depth_duration_MTurk/v2_DepthDuration_HTML.html#17,17,1571,864,1920,1080,9-19-2021,8-12-58,132,depth_duration_stimuli/001148_2014-06-17_15-26-42_260595134347_rgbf000129-resize_0/001148_2014-06-17_15-26-42_260595134347_rgbf000129-resize_0-target.png,250,4.368,2.1336,1814,249,feet,690249,782584,26,Woman
708,811430,DepthScenes,duration_manipulation_targetAtFixation,jsons/af.json,http://34.238.49.31/DepthDuration/v2_depth_duration_MTurk/v2_DepthDuration_HTML.html#17,17,1571,864,1920,1080,9-19-2021,8-12-58,133,depth_duration_stimuli/003338_2014-05-20_11-01-23_094959634447_rgbf000051-resize_6/003338_2014-05-20_11-01-23_094959634447_rgbf000051-resize_6-target.png,250,1.693,1.524,2316,251,feet,690249,782584,26,Woman
718,811430,DepthScenes,duration_manipulation_targetAtFixation,jsons/af.json,http://34.238.49.31/DepthDuration/v2_depth_duration_MTurk/v2_DepthDuration_HTML.html#17,17,1571,864,1920,1080,9-19-2021,8-12-58,143,depth_duration_stimuli/000469_2014-06-09_19-42-10_260595134347_rgbf000081-resize_1/000469_2014-06-09_19-42-10_260595134347_rgbf000081-resize_1-target.png,250,1.652,0.6096,1800,250,feet,690249,782584,26,Woman
721,811430,DepthScenes,duration_manipulation_targetAtFixation,jsons/af.json,http://34.238.49.31/DepthDuration/v2_depth_duration_MTurk/v2_DepthDuration_HTML.html#17,17,1571,864,1920,1080,9-19-2021,8-12-58,146,depth_duration_stimuli/003288_2014-05-14_21-50-30_094959634447_rgbf000028-resize_3/003288_2014-05-14_21-50-30_094959634447_rgbf000028-resize_3-target.png,250,3.877,0.9144000000000001,2427,251,feet,690249,782584,26,Woman
723,811430,DepthScenes,duration_manipulation_targetAtFixation,jsons/af.json,http://34.238.49.31/DepthDuration/v2_depth_duration_MTurk/v2_DepthDuration_HTML.html#17,17,1571,864,1920,1080,9-19-2021,8-12-58,148,depth_duration_stimuli/001056_2014-06-08_18-46-44_260595134347_rgbf000068-resize_0/001056_2014-06-08_18-46-44_260595134347_rgbf000068-resize_0-target.png,250,2.6625,0.9144000000000001,2567,237,feet,690249,782584,26,Woman
738,811430,DepthScenes,duration_manipulation_targetAtFixation,jsons/af.json,http://34.238.49.31/DepthDuration/v2_depth_duration_MTurk/v2_DepthDuration_HTML.html#17,17,1571,864,1920,1080,9-19-2021,8-12-58,163,depth_duration_stimuli/002131_2014-06-25_21-12-01_260595134347_rgbf000083-resize_0/002131_2014-06-25_21-12-01_260595134347_rgbf000083-resize_0-target.png,250,1.7685,1.2192,1972,249,feet,690249,782584,26,Woman
741,811430,DepthScenes,duration_manipulation_targetAtFixation,jsons/af.json,http://34.238.49.31/DepthDuration/v2_depth_duration_MTurk/v2_DepthDuration_HTML.html#17,17,1571,864,1920,1080,9-19-2021,8-12-58,166,depth_duration_stimuli/000753_2014-06-08_21-57-44_260595134347_rgbf000123-resize_3/000753_2014-06-08_21-57-44_260595134347_rgbf000123-resize_3-target.png,250,1.916,1.2192,2136,263,feet,690249,782584,26,Woman
742,811430,DepthScenes,duration_manipulation_targetAtFixation,jsons/af.json,http://34.238.49.31/DepthDuration/v2_depth_duration_MTurk/v2_DepthDuration_HTML.html#17,17,1571,864,1920,1080,9-19-2021,8-12-58,167,depth_duration_stimuli/000800_2014-06-08_22-42-09_260595134347_rgbf000095-resize_3/000800_2014-06-08_22-42-09_260595134347_rgbf000095-resize_3-target.png,250,2.8,1.8288000000000002,2076,250,feet,690249,782584,26,Woman
745,811430,DepthScenes,duration_manipulation_targetAtFixation,jsons/af.json,http://34.238.49.31/DepthDuration/v2_depth_duration_MTurk/v2_DepthDuration_HTML.html#17,17,1571,864,1920,1080,9-19-2021,8-12-58,170,depth_duration_stimuli/000436_2014-06-09_22-25-11_260595134347_rgbf000137-resize_1/000436_2014-06-09_22-25-11_260595134347_rgbf000137-resize_1-target.png,250,4.0705,2.4384,2028,261,feet,690249,782584,26,Woman
747,811430,DepthScenes,duration_manipulation_targetAtFixation,jsons/af.json,http://34.238.49.31/DepthDuration/v2_depth_duration_MTurk/v2_DepthDuration_HTML.html#17,17,1571,864,1920,1080,9-19-2021,8-12-58,172,depth_duration_stimuli/003546_2014-05-22_15-48-53_094959634447_rgbf004816-resize_3/003546_2014-05-22_15-48-53_094959634447_rgbf004816-resize_3-target.png,250,2.62625,1.2192,1757,251,feet,690249,782584,26,Woman
755,811430,DepthScenes,duration_manipulation_targetAtFixation,jsons/af.json,http://34.238.49.31/DepthDuration/v2_depth_duration_MTurk/v2_DepthDuration_HTML.html#17,17,1571,864,1920,1080,9-19-2021,8-12-58,180,depth_duration_stimuli/002788_2014-06-22_19-36-03_094959634447_rgbf000088-resize_2/002788_2014-06-22_19-36-03_094959634447_rgbf000088-resize_2-target.png,250,1.6465,1.2192,1939,250,feet,690249,782584,26,Woman
760,811430,DepthScenes,duration_manipulation_targetAtFixation,jsons/af.json,http://34.238.49.31/DepthDuration/v2_depth_duration_MTurk/v2_DepthDuration_HTML.html#17,17,1571,864,1920,1080,9-19-2021,8-12-58,185,depth_duration_stimuli/001815_2014-06-26_20-52-55_260595134347_rgbf000020-resize_0/001815_2014-06-26_20-52-55_260595134347_rgbf000020-resize_0-target.png,250,3.3865,2.1336,1843,250,feet,690249,782584,26,Woman
762,811430,DepthScenes,duration_manipulation_targetAtFixation,jsons/af.json,http://34.238.49.31/DepthDuration/v2_depth_duration_MTurk/v2_DepthDuration_HTML.html#17,17,1571,864,1920,1080,9-19-2021,8-12-58,187,depth_duration_stimuli/001132_2014-06-17_14-48-54_260595134347_rgbf000100-resize_2/001132_2014-06-17_14-48-54_260595134347_rgbf000100-resize_2-target.png,250,3.753,2.1336,1547,250,feet,690249,782584,26,Woman
763,811430,DepthScenes,duration_manipulation_targetAtFixation,jsons/af.json,http://34.238.49.31/DepthDuration/v2_depth_duration_MTurk/v2_DepthDuration_HTML.html#17,17,1571,864,1920,1080,9-19-2021,8-12-58,188,depth_duration_stimuli/001808_2014-06-26_20-50-58_260595134347_rgbf000029-resize_1/001808_2014-06-26_20-50-58_260595134347_rgbf000029-resize_1-target.png,250,4.249,2.1336,2068,250,feet,690249,782584,26,Woman
767,811430,DepthScenes,duration_manipulation_targetAtFixation,jsons/af.json,http://34.238.49.31/DepthDuration/v2_depth_duration_MTurk/v2_DepthDuration_HTML.html#17,17,1571,864,1920,1080,9-19-2021,8-12-58,192,depth_duration_stimuli/000773_2014-06-08_22-24-54_260595134347_rgbf000093-resize_1/000773_2014-06-08_22-24-54_260595134347_rgbf000093-resize_1-target.png,250,4.973,2.1336,2036,251,feet,690249,782584,26,Woman
768,614349,DepthScenes,duration_manipulation_targetAtFixation,jsons/ah_2.json,http://35.173.220.167/DepthDuration/v2_depth_duration_MTurk/v2_DepthDuration_HTML.html#30,30,1440,757,1440,900,9-5-2021,5-56-48,1,depth_duration_stimuli/001264_2014-06-16_16-10-23_260595134347_rgbf000109-resize_1/001264_2014-06-16_16-10-23_260595134347_rgbf000109-resize_1-target.png,250,2.9665,1.8288000000000002,3430,248,feet,1021300,1244325,55,Man
772,614349,DepthScenes,duration_manipulation_targetAtFixation,jsons/ah_2.json,http://35.173.220.167/DepthDuration/v2_depth_duration_MTurk/v2_DepthDuration_HTML.html#30,30,1440,757,1440,900,9-5-2021,5-56-48,5,depth_duration_stimuli/003423_2014-05-21_10-23-26_094959634447_rgbf002665-resize_2/003423_2014-05-21_10-23-26_094959634447_rgbf002665-resize_2-target.png,250,3.2575,3.048,6590,236,feet,1021300,1244325,55,Man
779,614349,DepthScenes,duration_manipulation_targetAtFixation,jsons/ah_2.json,http://35.173.220.167/DepthDuration/v2_depth_duration_MTurk/v2_DepthDuration_HTML.html#30,30,1440,757,1440,900,9-5-2021,5-56-48,12,depth_duration_stimuli/000665_2014-06-09_20-42-35_260595134347_rgbf000110-resize_1/000665_2014-06-09_20-42-35_260595134347_rgbf000110-resize_1-target.png,250,3.057,2.4384,4137,263,feet,1021300,1244325,55,Man
783,614349,DepthScenes,duration_manipulation_targetAtFixation,jsons/ah_2.json,http://35.173.220.167/DepthDuration/v2_depth_duration_MTurk/v2_DepthDuration_HTML.html#30,30,1440,757,1440,900,9-5-2021,5-56-48,16,depth_duration_stimuli/002784_2014-06-22_19-26-30_094959634447_rgbf000083-resize_3/002784_2014-06-22_19-26-30_094959634447_rgbf000083-resize_3-target.png,250,1.8046666666667,0.9144000000000001,3636,238,feet,1021300,1244325,55,Man
788,614349,DepthScenes,duration_manipulation_targetAtFixation,jsons/ah_2.json,http://35.173.220.167/DepthDuration/v2_depth_duration_MTurk/v2_DepthDuration_HTML.html#30,30,1440,757,1440,900,9-5-2021,5-56-48,21,depth_duration_stimuli/002039_2014-06-24_20-22-38_260595134347_rgbf000084-resize_1/002039_2014-06-24_20-22-38_260595134347_rgbf000084-resize_1-target.png,250,4.408,2.4384,4921,251,feet,1021300,1244325,55,Man
790,614349,DepthScenes,duration_manipulation_targetAtFixation,jsons/ah_2.json,http://35.173.220.167/DepthDuration/v2_depth_duration_MTurk/v2_DepthDuration_HTML.html#30,30,1440,757,1440,900,9-5-2021,5-56-48,23,depth_duration_stimuli/002375_2014-06-28_20-13-44_260595134347_rgbf000032-resize_1/002375_2014-06-28_20-13-44_260595134347_rgbf000032-resize_1-target.png,250,4.0175,1.8288000000000002,3101,254,feet,1021300,1244325,55,Man
798,614349,DepthScenes,duration_manipulation_targetAtFixation,jsons/ah_2.json,http://35.173.220.167/DepthDuration/v2_depth_duration_MTurk/v2_DepthDuration_HTML.html#30,30,1440,757,1440,900,9-5-2021,5-56-48,31,depth_duration_stimuli/002509_2014-06-24_13-19-22_094959634447_rgbf000077-resize_0/002509_2014-06-24_13-19-22_094959634447_rgbf000077-resize_0-target.png,250,1.3065,1.8288000000000002,4084,239,feet,1021300,1244325,55,Man
802,614349,DepthScenes,duration_manipulation_targetAtFixation,jsons/ah_2.json,http://35.173.220.167/DepthDuration/v2_depth_duration_MTurk/v2_DepthDuration_HTML.html#30,30,1440,757,1440,900,9-5-2021,5-56-48,35,depth_duration_stimuli/001618_2014-06-20_11-37-31_260595134347_rgbf000027-resize_3/001618_2014-06-20_11-37-31_260595134347_rgbf000027-resize_3-target.png,250,1.8725,0.9144000000000001,3217,251,feet,1021300,1244325,55,Man
807,614349,DepthScenes,duration_manipulation_targetAtFixation,jsons/ah_2.json,http://35.173.220.167/DepthDuration/v2_depth_duration_MTurk/v2_DepthDuration_HTML.html#30,30,1440,757,1440,900,9-5-2021,5-56-48,40,depth_duration_stimuli/002630_2014-06-24_14-47-50_094959634447_rgbf000055-resize_1/002630_2014-06-24_14-47-50_094959634447_rgbf000055-resize_1-target.png,250,3.0095,4.572,6177,437,feet,1021300,1244325,55,Man
808,614349,DepthScenes,duration_manipulation_targetAtFixation,jsons/ah_2.json,http://35.173.220.167/DepthDuration/v2_depth_duration_MTurk/v2_DepthDuration_HTML.html#30,30,1440,757,1440,900,9-5-2021,5-56-48,41,depth_duration_stimuli/000749_2014-06-08_21-55-06_260595134347_rgbf000070-resize_2/000749_2014-06-08_21-55-06_260595134347_rgbf000070-resize_2-target.png,250,2.331,1.8288000000000002,4828,244,feet,1021300,1244325,55,Man
810,614349,DepthScenes,duration_manipulation_targetAtFixation,jsons/ah_2.json,http://35.173.220.167/DepthDuration/v2_depth_duration_MTurk/v2_DepthDuration_HTML.html#30,30,1440,757,1440,900,9-5-2021,5-56-48,43,depth_duration_stimuli/001158_2014-06-17_15-32-16_260595134347_rgbf000138-resize_2/001158_2014-06-17_15-32-16_260595134347_rgbf000138-resize_2-target.png,250,4.5315,3.6576000000000004,3640,257,feet,1021300,1244325,55,Man
813,614349,DepthScenes,duration_manipulation_targetAtFixation,jsons/ah_2.json,http://35.173.220.167/DepthDuration/v2_depth_duration_MTurk/v2_DepthDuration_HTML.html#30,30,1440,757,1440,900,9-5-2021,5-56-48,46,depth_duration_stimuli/000522_2014-06-08_13-35-06_260595134347_rgbf000244-resize_1/000522_2014-06-08_13-35-06_260595134347_rgbf000244-resize_1-target.png,250,2.3715,0.9144000000000001,4870,247,feet,1021300,1244325,55,Man
821,614349,DepthScenes,duration_manipulation_targetAtFixation,jsons/ah_2.json,http://35.173.220.167/DepthDuration/v2_depth_duration_MTurk/v2_DepthDuration_HTML.html#30,30,1440,757,1440,900,9-5-2021,5-56-48,54,depth_duration_stimuli/002639_2014-06-24_14-51-37_094959634447_rgbf000074-resize_4/002639_2014-06-24_14-51-37_094959634447_rgbf000074-resize_4-target.png,250,4.0375,2.1336,5708,236,feet,1021300,1244325,55,Man
823,614349,DepthScenes,duration_manipulation_targetAtFixation,jsons/ah_2.json,http://35.173.220.167/DepthDuration/v2_depth_duration_MTurk/v2_DepthDuration_HTML.html#30,30,1440,757,1440,900,9-5-2021,5-56-48,56,depth_duration_stimuli/002600_2014-06-24_14-27-04_094959634447_rgbf000074-resize_2/002600_2014-06-24_14-27-04_094959634447_rgbf000074-resize_2-target.png,250,2.7575,2.4384,3141,235,feet,1021300,1244325,55,Man
824,614349,DepthScenes,duration_manipulation_targetAtFixation,jsons/ah_2.json,http://35.173.220.167/DepthDuration/v2_depth_duration_MTurk/v2_DepthDuration_HTML.html#30,30,1440,757,1440,900,9-5-2021,5-56-48,57,depth_duration_stimuli/003288_2014-05-14_21-50-30_094959634447_rgbf000028-resize_3/003288_2014-05-14_21-50-30_094959634447_rgbf000028-resize_3-target.png,250,3.877,3.048,3300,241,feet,1021300,1244325,55,Man
825,614349,DepthScenes,duration_manipulation_targetAtFixation,jsons/ah_2.json,http://35.173.220.167/DepthDuration/v2_depth_duration_MTurk/v2_DepthDuration_HTML.html#30,30,1440,757,1440,900,9-5-2021,5-56-48,58,depth_duration_stimuli/001132_2014-06-17_14-48-54_260595134347_rgbf000100-resize_2/001132_2014-06-17_14-48-54_260595134347_rgbf000100-resize_2-target.png,250,3.753,3.048,3558,243,feet,1021300,1244325,55,Man
830,614349,DepthScenes,duration_manipulation_targetAtFixation,jsons/ah_2.json,http://35.173.220.167/DepthDuration/v2_depth_duration_MTurk/v2_DepthDuration_HTML.html#30,30,1440,757,1440,900,9-5-2021,5-56-48,63,depth_duration_stimuli/000810_2014-06-08_17-20-01_260595134347_rgbf000105-resize_0/000810_2014-06-08_17-20-01_260595134347_rgbf000105-resize_0-target.png,250,1.4865,1.8288000000000002,2813,245,feet,1021300,1244325,55,Man
832,614349,DepthScenes,duration_manipulation_targetAtFixation,jsons/ah_2.json,http://35.173.220.167/DepthDuration/v2_depth_duration_MTurk/v2_DepthDuration_HTML.html#30,30,1440,757,1440,900,9-5-2021,5-56-48,65,depth_duration_stimuli/002989_2014-06-15_12-25-03_094959634447_rgbf000150-resize_3/002989_2014-06-15_12-25-03_094959634447_rgbf000150-resize_3-target.png,250,4.1975,4.572,4525,132,feet,1021300,1244325,55,Man
836,614349,DepthScenes,duration_manipulation_targetAtFixation,jsons/ah_2.json,http://35.173.220.167/DepthDuration/v2_depth_duration_MTurk/v2_DepthDuration_HTML.html#30,30,1440,757,1440,900,9-5-2021,5-56-48,69,depth_duration_stimuli/001810_2014-06-26_20-51-35_260595134347_rgbf000040-resize_3/001810_2014-06-26_20-51-35_260595134347_rgbf000040-resize_3-target.png,250,2.2525,1.2192,3717,257,feet,1021300,1244325,55,Man
839,614349,DepthScenes,duration_manipulation_targetAtFixation,jsons/ah_2.json,http://35.173.220.167/DepthDuration/v2_depth_duration_MTurk/v2_DepthDuration_HTML.html#30,30,1440,757,1440,900,9-5-2021,5-56-48,72,depth_duration_stimuli/002763_2014-06-22_19-13-10_094959634447_rgbf000075-resize_4/002763_2014-06-22_19-13-10_094959634447_rgbf000075-resize_4-target.png,250,1.68375,1.8288000000000002,5515,239,feet,1021300,1244325,55,Man
840,614349,DepthScenes,duration_manipulation_targetAtFixation,jsons/ah_2.json,http://35.173.220.167/DepthDuration/v2_depth_duration_MTurk/v2_DepthDuration_HTML.html#30,30,1440,757,1440,900,9-5-2021,5-56-48,73,depth_duration_stimuli/001052_2014-06-08_18-24-54_260595134347_rgbf000130-resize_1/001052_2014-06-08_18-24-54_260595134347_rgbf000130-resize_1-target.png,250,4.1045,3.6576000000000004,3831,256,feet,1021300,1244325,55,Man
841,614349,DepthScenes,duration_manipulation_targetAtFixation,jsons/ah_2.json,http://35.173.220.167/DepthDuration/v2_depth_duration_MTurk/v2_DepthDuration_HTML.html#30,30,1440,757,1440,900,9-5-2021,5-56-48,74,depth_duration_stimuli/001449_2014-06-19_17-01-27_260595134347_rgbf000116-resize_2/001449_2014-06-19_17-01-27_260595134347_rgbf000116-resize_2-target.png,250,3.452,3.048,3976,249,feet,1021300,1244325,55,Man
845,614349,DepthScenes,duration_manipulation_targetAtFixation,jsons/ah_2.json,http://35.173.220.167/DepthDuration/v2_depth_duration_MTurk/v2_DepthDuration_HTML.html#30,30,1440,757,1440,900,9-5-2021,5-56-48,78,depth_duration_stimuli/002678_2014-06-13_16-15-32_094959634447_rgbf000151-resize_6/002678_2014-06-13_16-15-32_094959634447_rgbf000151-resize_6-target.png,250,2.183,3.6576000000000004,4091,252,feet,1021300,1244325,55,Man
863,614349,DepthScenes,duration_manipulation_targetAtFixation,jsons/ah_2.json,http://35.173.220.167/DepthDuration/v2_depth_duration_MTurk/v2_DepthDuration_HTML.html#30,30,1440,757,1440,900,9-5-2021,5-56-48,96,depth_duration_stimuli/000470_2014-06-09_19-42-40_260595134347_rgbf000094-resize_1/000470_2014-06-09_19-42-40_260595134347_rgbf000094-resize_1-target.png,250,1.831,1.8288000000000002,3641,260,feet,1021300,1244325,55,Man
866,614349,DepthScenes,duration_manipulation_targetAtFixation,jsons/ah_2.json,http://35.173.220.167/DepthDuration/v2_depth_duration_MTurk/v2_DepthDuration_HTML.html#30,30,1440,757,1440,900,9-5-2021,5-56-48,99,depth_duration_stimuli/002445_2014-06-28_20-32-16_260595134347_rgbf000029-resize_4/002445_2014-06-28_20-32-16_260595134347_rgbf000029-resize_4-target.png,250,2.5315,3.6576000000000004,3727,246,feet,1021300,1244325,55,Man
871,614349,DepthScenes,duration_manipulation_targetAtFixation,jsons/ah_2.json,http://35.173.220.167/DepthDuration/v2_depth_duration_MTurk/v2_DepthDuration_HTML.html#30,30,1440,757,1440,900,9-5-2021,5-56-48,104,depth_duration_stimuli/001808_2014-06-26_20-50-58_260595134347_rgbf000029-resize_1/001808_2014-06-26_20-50-58_260595134347_rgbf000029-resize_1-target.png,250,4.249,3.048,3772,254,feet,1021300,1244325,55,Man
874,614349,DepthScenes,duration_manipulation_targetAtFixation,jsons/ah_2.json,http://35.173.220.167/DepthDuration/v2_depth_duration_MTurk/v2_DepthDuration_HTML.html#30,30,1440,757,1440,900,9-5-2021,5-56-48,107,depth_duration_stimuli/002344_2014-06-28_20-06-29_260595134347_rgbf000030-resize_1/002344_2014-06-28_20-06-29_260595134347_rgbf000030-resize_1-target.png,250,1.5795,0.9144000000000001,2948,292,feet,1021300,1244325,55,Man
877,614349,DepthScenes,duration_manipulation_targetAtFixation,jsons/ah_2.json,http://35.173.220.167/DepthDuration/v2_depth_duration_MTurk/v2_DepthDuration_HTML.html#30,30,1440,757,1440,900,9-5-2021,5-56-48,110,depth_duration_stimuli/002700_2014-06-22_11-27-02_094959634447_rgbf000124-resize_3/002700_2014-06-22_11-27-02_094959634447_rgbf000124-resize_3-target.png,250,3.301,6.096,5004,257,feet,1021300,1244325,55,Man
883,614349,DepthScenes,duration_manipulation_targetAtFixation,jsons/ah_2.json,http://35.173.220.167/DepthDuration/v2_depth_duration_MTurk/v2_DepthDuration_HTML.html#30,30,1440,757,1440,900,9-5-2021,5-56-48,116,depth_duration_stimuli/000692_2014-06-08_13-09-42_260595134347_rgbf000199-resize_2/000692_2014-06-08_13-09-42_260595134347_rgbf000199-resize_2-target.png,250,3.661,7.62,3870,250,feet,1021300,1244325,55,Man
884,614349,DepthScenes,duration_manipulation_targetAtFixation,jsons/ah_2.json,http://35.173.220.167/DepthDuration/v2_depth_duration_MTurk/v2_DepthDuration_HTML.html#30,30,1440,757,1440,900,9-5-2021,5-56-48,117,depth_duration_stimuli/001532_2014-06-20_16-50-41_260595134347_rgbf000081-resize_4/001532_2014-06-20_16-50-41_260595134347_rgbf000081-resize_4-target.png,250,1.5758333333333,0.9144000000000001,5612,255,feet,1021300,1244325,55,Man
888,614349,DepthScenes,duration_manipulation_targetAtFixation,jsons/ah_2.json,http://35.173.220.167/DepthDuration/v2_depth_duration_MTurk/v2_DepthDuration_HTML.html#30,30,1440,757,1440,900,9-5-2021,5-56-48,121,depth_duration_stimuli/001011_2014-06-08_23-18-54_260595134347_rgbf000044-resize_4/001011_2014-06-08_23-18-54_260595134347_rgbf000044-resize_4-target.png,250,2.473,3.6576000000000004,4528,249,feet,1021300,1244325,55,Man
889,614349,DepthScenes,duration_manipulation_targetAtFixation,jsons/ah_2.json,http://35.173.220.167/DepthDuration/v2_depth_duration_MTurk/v2_DepthDuration_HTML.html#30,30,1440,757,1440,900,9-5-2021,5-56-48,122,depth_duration_stimuli/002305_2014-06-28_19-56-50_260595134347_rgbf000102-resize_7/002305_2014-06-28_19-56-50_260595134347_rgbf000102-resize_7-target.png,250,4.8725,3.048,6927,244,feet,1021300,1244325,55,Man
893,614349,DepthScenes,duration_manipulation_targetAtFixation,jsons/ah_2.json,http://35.173.220.167/DepthDuration/v2_depth_duration_MTurk/v2_DepthDuration_HTML.html#30,30,1440,757,1440,900,9-5-2021,5-56-48,126,depth_duration_stimuli/001828_2014-06-26_21-40-03_260595134347_rgbf000024-resize_0/001828_2014-06-26_21-40-03_260595134347_rgbf000024-resize_0-target.png,250,4.826,5.486400000000001,5558,255,feet,1021300,1244325,55,Man
896,614349,DepthScenes,duration_manipulation_targetAtFixation,jsons/ah_2.json,http://35.173.220.167/DepthDuration/v2_depth_duration_MTurk/v2_DepthDuration_HTML.html#30,30,1440,757,1440,900,9-5-2021,5-56-48,129,depth_duration_stimuli/000103_2014-05-14_22-01-17_260595134347_rgbf000152-resize_5/000103_2014-05-14_22-01-17_260595134347_rgbf000152-resize_5-target.png,250,1.993,2.4384,4196,363,feet,1021300,1244325,55,Man
898,614349,DepthScenes,duration_manipulation_targetAtFixation,jsons/ah_2.json,http://35.173.220.167/DepthDuration/v2_depth_duration_MTurk/v2_DepthDuration_HTML.html#30,30,1440,757,1440,900,9-5-2021,5-56-48,131,depth_duration_stimuli/001815_2014-06-26_20-52-55_260595134347_rgbf000020-resize_0/001815_2014-06-26_20-52-55_260595134347_rgbf000020-resize_0-target.png,250,3.3865,3.048,6350,244,feet,1021300,1244325,55,Man
910,614349,DepthScenes,duration_manipulation_targetAtFixation,jsons/ah_2.json,http://35.173.220.167/DepthDuration/v2_depth_duration_MTurk/v2_DepthDuration_HTML.html#30,30,1440,757,1440,900,9-5-2021,5-56-48,143,depth_duration_stimuli/003079_2014-06-15_15-18-20_094959634447_rgbf000152-resize_8/003079_2014-06-15_15-18-20_094959634447_rgbf000152-resize_8-target.png,250,2.8775,4.572,4381,237,feet,1021300,1244325,55,Man
919,614349,DepthScenes,duration_manipulation_targetAtFixation,jsons/ah_2.json,http://35.173.220.167/DepthDuration/v2_depth_duration_MTurk/v2_DepthDuration_HTML.html#30,30,1440,757,1440,900,9-5-2021,5-56-48,152,depth_duration_stimuli/002464_2014-06-28_20-36-57_260595134347_rgbf000029-resize_0/002464_2014-06-28_20-36-57_260595134347_rgbf000029-resize_0-target.png,250,3.9525,3.048,4981,243,feet,1021300,1244325,55,Man
922,614349,DepthScenes,duration_manipulation_targetAtFixation,jsons/ah_2.json,http://35.173.220.167/DepthDuration/v2_depth_duration_MTurk/v2_DepthDuration_HTML.html#30,30,1440,757,1440,900,9-5-2021,5-56-48,155,depth_duration_stimuli/002748_2014-06-22_19-07-22_094959634447_rgbf000078-resize_1/002748_2014-06-22_19-07-22_094959634447_rgbf000078-resize_1-target.png,250,4.6705,6.096,3902,248,feet,1021300,1244325,55,Man
927,614349,DepthScenes,duration_manipulation_targetAtFixation,jsons/ah_2.json,http://35.173.220.167/DepthDuration/v2_depth_duration_MTurk/v2_DepthDuration_HTML.html#30,30,1440,757,1440,900,9-5-2021,5-56-48,160,depth_duration_stimuli/001447_2014-06-19_17-00-32_260595134347_rgbf000082-resize_5/001447_2014-06-19_17-00-32_260595134347_rgbf000082-resize_5-target.png,250,4.13775,3.6576000000000004,4422,250,feet,1021300,1244325,55,Man
930,614349,DepthScenes,duration_manipulation_targetAtFixation,jsons/ah_2.json,http://35.173.220.167/DepthDuration/v2_depth_duration_MTurk/v2_DepthDuration_HTML.html#30,30,1440,757,1440,900,9-5-2021,5-56-48,163,depth_duration_stimuli/000691_2014-06-08_13-08-50_260595134347_rgbf000132-resize_3/000691_2014-06-08_13-08-50_260595134347_rgbf000132-resize_3-target.png,250,4.153,3.6576000000000004,4353,252,feet,1021300,1244325,55,Man
936,614349,DepthScenes,duration_manipulation_targetAtFixation,jsons/ah_2.json,http://35.173.220.167/DepthDuration/v2_depth_duration_MTurk/v2_DepthDuration_HTML.html#30,30,1440,757,1440,900,9-5-2021,5-56-48,169,depth_duration_stimuli/002209_2014-06-28_18-36-10_260595134347_rgbf000051-resize_1/002209_2014-06-28_18-36-10_260595134347_rgbf000051-resize_1-target.png,250,2.057,3.048,6442,245,feet,1021300,1244325,55,Man
937,614349,DepthScenes,duration_manipulation_targetAtFixation,jsons/ah_2.json,http://35.173.220.167/DepthDuration/v2_depth_duration_MTurk/v2_DepthDuration_HTML.html#30,30,1440,757,1440,900,9-5-2021,5-56-48,170,depth_duration_stimuli/003490_2014-05-21_15-50-11_094959634447_rgbf000101-resize_3/003490_2014-05-21_15-50-11_094959634447_rgbf000101-resize_3-target.png,250,3.6445,6.096,3858,254,feet,1021300,1244325,55,Man
939,614349,DepthScenes,duration_manipulation_targetAtFixation,jsons/ah_2.json,http://35.173.220.167/DepthDuration/v2_depth_duration_MTurk/v2_DepthDuration_HTML.html#30,30,1440,757,1440,900,9-5-2021,5-56-48,172,depth_duration_stimuli/001110_2014-06-15_17-25-28_260595134347_rgbf000150-resize_1/001110_2014-06-15_17-25-28_260595134347_rgbf000150-resize_1-target.png,250,1.7115,1.8288000000000002,2458,245,feet,1021300,1244325,55,Man
944,614349,DepthScenes,duration_manipulation_targetAtFixation,jsons/ah_2.json,http://35.173.220.167/DepthDuration/v2_depth_duration_MTurk/v2_DepthDuration_HTML.html#30,30,1440,757,1440,900,9-5-2021,5-56-48,177,depth_duration_stimuli/002468_2014-06-28_20-38-39_260595134347_rgbf000045-resize_1/002468_2014-06-28_20-38-39_260595134347_rgbf000045-resize_1-target.png,250,1.956,3.6576000000000004,4428,244,feet,1021300,1244325,55,Man
949,614349,DepthScenes,duration_manipulation_targetAtFixation,jsons/ah_2.json,http://35.173.220.167/DepthDuration/v2_depth_duration_MTurk/v2_DepthDuration_HTML.html#30,30,1440,757,1440,900,9-5-2021,5-56-48,182,depth_duration_stimuli/003228_2014-05-14_13-42-35_094959634447_rgbf000101-resize_1/003228_2014-05-14_13-42-35_094959634447_rgbf000101-resize_1-target.png,250,1.968,1.8288000000000002,4421,247,feet,1021300,1244325,55,Man
954,614349,DepthScenes,duration_manipulation_targetAtFixation,jsons/ah_2.json,http://35.173.220.167/DepthDuration/v2_depth_duration_MTurk/v2_DepthDuration_HTML.html#30,30,1440,757,1440,900,9-5-2021,5-56-48,187,depth_duration_stimuli/002118_2014-06-25_20-32-08_260595134347_rgbf000078-resize_1/002118_2014-06-25_20-32-08_260595134347_rgbf000078-resize_1-target.png,250,2.646,2.4384,5295,257,feet,1021300,1244325,55,Man
955,614349,DepthScenes,duration_manipulation_targetAtFixation,jsons/ah_2.json,http://35.173.220.167/DepthDuration/v2_depth_duration_MTurk/v2_DepthDuration_HTML.html#30,30,1440,757,1440,900,9-5-2021,5-56-48,188,depth_duration_stimuli/000736_2014-06-08_18-24-15_260595134347_rgbf000206-resize_3/000736_2014-06-08_18-24-15_260595134347_rgbf000206-resize_3-target.png,250,3.515,3.6576000000000004,4753,242,feet,1021300,1244325,55,Man
958,614349,DepthScenes,duration_manipulation_targetAtFixation,jsons/ah_2.json,http://35.173.220.167/DepthDuration/v2_depth_duration_MTurk/v2_DepthDuration_HTML.html#30,30,1440,757,1440,900,9-5-2021,5-56-48,191,depth_duration_stimuli/000682_2014-06-08_23-14-58_260595134347_rgbf000041-resize_5/000682_2014-06-08_23-14-58_260595134347_rgbf000041-resize_5-target.png,250,2.724,2.4384,3226,252,feet,1021300,1244325,55,Man
