,subjID,experimentName,versionName,sequenceName,url,selected_row,windowWidth,windowHeight,screenWidth,screenHeight,startDate,startTime,trial,stimulus,duration,actual_depth,depth_estimate,trial_RT,log_sceneDuration,unitSelection,experimentTime,totalTime,age,gender
5,710814,DepthScenes,duration_manipulation_targetAtFixation,jsons/ad_3.json,http://100.27.21.195/DepthDuration/v2_depth_duration_MTurk/v2_DepthDuration_HTML.html#8,8,1600,789,1600,900,9-11-2021,14-50-23,6,depth_duration_stimuli/002987_2014-06-08_18-48-20_094959634447_rgbf000022-resize_0/002987_2014-06-08_18-48-20_094959634447_rgbf000022-resize_0-target.png,500,2.6775,0.9144000000000001,2715,500,feet,750381,902117,44,Man
6,710814,DepthScenes,duration_manipulation_targetAtFixation,jsons/ad_3.json,http://100.27.21.195/DepthDuration/v2_depth_duration_MTurk/v2_DepthDuration_HTML.html#8,8,1600,789,1600,900,9-11-2021,14-50-23,7,depth_duration_stimuli/001810_2014-06-26_20-51-35_260595134347_rgbf000040-resize_3/001810_2014-06-26_20-51-35_260595134347_rgbf000040-resize_3-target.png,500,2.2525,1.2192,2314,500,feet,750381,902117,44,Man
14,710814,DepthScenes,duration_manipulation_targetAtFixation,jsons/ad_3.json,http://100.27.21.195/DepthDuration/v2_depth_duration_MTurk/v2_DepthDuration_HTML.html#8,8,1600,789,1600,900,9-11-2021,14-50-23,15,depth_duration_stimuli/000773_2014-06-08_22-24-54_260595134347_rgbf000093-resize_1/000773_2014-06-08_22-24-54_260595134347_rgbf000093-resize_1-target.png,500,4.973,2.7432000000000003,3523,500,feet,750381,902117,44,Man
15,710814,DepthScenes,duration_manipulation_targetAtFixation,jsons/ad_3.json,http://100.27.21.195/DepthDuration/v2_depth_duration_MTurk/v2_DepthDuration_HTML.html#8,8,1600,789,1600,900,9-11-2021,14-50-23,16,depth_duration_stimuli/002464_2014-06-28_20-36-57_260595134347_rgbf000029-resize_0/002464_2014-06-28_20-36-57_260595134347_rgbf000029-resize_0-target.png,500,3.9525,0.9144000000000001,4682,1491,feet,750381,902117,44,Man
23,710814,DepthScenes,duration_manipulation_targetAtFixation,jsons/ad_3.json,http://100.27.21.195/DepthDuration/v2_depth_duration_MTurk/v2_DepthDuration_HTML.html#8,8,1600,789,1600,900,9-11-2021,14-50-23,24,depth_duration_stimuli/002750_2014-06-22_19-08-03_094959634447_rgbf000094-resize_4/002750_2014-06-22_19-08-03_094959634447_rgbf000094-resize_4-target.png,500,2.354,1.8288000000000002,4651,499,feet,750381,902117,44,Man
26,710814,DepthScenes,duration_manipulation_targetAtFixation,jsons/ad_3.json,http://100.27.21.195/DepthDuration/v2_depth_duration_MTurk/v2_DepthDuration_HTML.html#8,8,1600,789,1600,900,9-11-2021,14-50-23,27,depth_duration_stimuli/001532_2014-06-20_16-50-41_260595134347_rgbf000081-resize_4/001532_2014-06-20_16-50-41_260595134347_rgbf000081-resize_4-target.png,500,1.5758333333333,0.6096,3090,500,feet,750381,902117,44,Man
29,710814,DepthScenes,duration_manipulation_targetAtFixation,jsons/ad_3.json,http://100.27.21.195/DepthDuration/v2_depth_duration_MTurk/v2_DepthDuration_HTML.html#8,8,1600,789,1600,900,9-11-2021,14-50-23,30,depth_duration_stimuli/002639_2014-06-24_14-51-37_094959634447_rgbf000074-resize_4/002639_2014-06-24_14-51-37_094959634447_rgbf000074-resize_4-target.png,500,4.0375,1.8288000000000002,3067,501,feet,750381,902117,44,Man
36,710814,DepthScenes,duration_manipulation_targetAtFixation,jsons/ad_3.json,http://100.27.21.195/DepthDuration/v2_depth_duration_MTurk/v2_DepthDuration_HTML.html#8,8,1600,789,1600,900,9-11-2021,14-50-23,37,depth_duration_stimuli/001133_2014-06-17_14-49-16_260595134347_rgbf000100-resize_0/001133_2014-06-17_14-49-16_260595134347_rgbf000100-resize_0-target.png,500,4.2115,2.7432000000000003,3147,500,feet,750381,902117,44,Man
40,710814,DepthScenes,duration_manipulation_targetAtFixation,jsons/ad_3.json,http://100.27.21.195/DepthDuration/v2_depth_duration_MTurk/v2_DepthDuration_HTML.html#8,8,1600,789,1600,900,9-11-2021,14-50-23,41,depth_duration_stimuli/003587_2014-05-23_16-48-02_094959634447_rgbf002384-resize_2/003587_2014-05-23_16-48-02_094959634447_rgbf002384-resize_2-target.png,500,1.357,0.6096,2164,500,feet,750381,902117,44,Man
43,710814,DepthScenes,duration_manipulation_targetAtFixation,jsons/ad_3.json,http://100.27.21.195/DepthDuration/v2_depth_duration_MTurk/v2_DepthDuration_HTML.html#8,8,1600,789,1600,900,9-11-2021,14-50-23,44,depth_duration_stimuli/002136_2014-06-25_21-18-03_260595134347_rgbf000109-resize_3/002136_2014-06-25_21-18-03_260595134347_rgbf000109-resize_3-target.png,500,1.957,1.2192,2379,500,feet,750381,902117,44,Man
47,710814,DepthScenes,duration_manipulation_targetAtFixation,jsons/ad_3.json,http://100.27.21.195/DepthDuration/v2_depth_duration_MTurk/v2_DepthDuration_HTML.html#8,8,1600,789,1600,900,9-11-2021,14-50-23,48,depth_duration_stimuli/000409_2014-06-04_19-23-33_260595134347_rgbf000067-resize_0/000409_2014-06-04_19-23-33_260595134347_rgbf000067-resize_0-target.png,500,3.7335,1.524,1770,499,feet,750381,902117,44,Man
52,710814,DepthScenes,duration_manipulation_targetAtFixation,jsons/ad_3.json,http://100.27.21.195/DepthDuration/v2_depth_duration_MTurk/v2_DepthDuration_HTML.html#8,8,1600,789,1600,900,9-11-2021,14-50-23,53,depth_duration_stimuli/000677_2014-06-08_23-10-32_260595134347_rgbf000158-resize_6/000677_2014-06-08_23-10-32_260595134347_rgbf000158-resize_6-target.png,500,3.556,1.8288000000000002,4032,499,feet,750381,902117,44,Man
65,710814,DepthScenes,duration_manipulation_targetAtFixation,jsons/ad_3.json,http://100.27.21.195/DepthDuration/v2_depth_duration_MTurk/v2_DepthDuration_HTML.html#8,8,1600,789,1600,900,9-11-2021,14-50-23,66,depth_duration_stimuli/000691_2014-06-08_13-08-50_260595134347_rgbf000132-resize_3/000691_2014-06-08_13-08-50_260595134347_rgbf000132-resize_3-target.png,500,4.153,2.7432000000000003,1948,500,feet,750381,902117,44,Man
68,710814,DepthScenes,duration_manipulation_targetAtFixation,jsons/ad_3.json,http://100.27.21.195/DepthDuration/v2_depth_duration_MTurk/v2_DepthDuration_HTML.html#8,8,1600,789,1600,900,9-11-2021,14-50-23,69,depth_duration_stimuli/002905_2014-06-03_18-04-43_094959634447_rgbf000151-resize_2/002905_2014-06-03_18-04-43_094959634447_rgbf000151-resize_2-target.png,500,2.0295,1.2192,2995,500,feet,750381,902117,44,Man
71,710814,DepthScenes,duration_manipulation_targetAtFixation,jsons/ad_3.json,http://100.27.21.195/DepthDuration/v2_depth_duration_MTurk/v2_DepthDuration_HTML.html#8,8,1600,789,1600,900,9-11-2021,14-50-23,72,depth_duration_stimuli/003083_2014-06-15_15-21-03_094959634447_rgbf000063-resize_1/003083_2014-06-15_15-21-03_094959634447_rgbf000063-resize_1-target.png,500,4.1405,1.8288000000000002,2011,500,feet,750381,902117,44,Man
72,710814,DepthScenes,duration_manipulation_targetAtFixation,jsons/ad_3.json,http://100.27.21.195/DepthDuration/v2_depth_duration_MTurk/v2_DepthDuration_HTML.html#8,8,1600,789,1600,900,9-11-2021,14-50-23,73,depth_duration_stimuli/000943_2014-06-09_19-31-07_260595134347_rgbf000128-resize_1/000943_2014-06-09_19-31-07_260595134347_rgbf000128-resize_1-target.png,500,1.9765,0.6096,2427,500,feet,750381,902117,44,Man
77,710814,DepthScenes,duration_manipulation_targetAtFixation,jsons/ad_3.json,http://100.27.21.195/DepthDuration/v2_depth_duration_MTurk/v2_DepthDuration_HTML.html#8,8,1600,789,1600,900,9-11-2021,14-50-23,78,depth_duration_stimuli/000522_2014-06-08_13-35-06_260595134347_rgbf000244-resize_1/000522_2014-06-08_13-35-06_260595134347_rgbf000244-resize_1-target.png,500,2.3715,0.6096,1891,500,feet,750381,902117,44,Man
78,710814,DepthScenes,duration_manipulation_targetAtFixation,jsons/ad_3.json,http://100.27.21.195/DepthDuration/v2_depth_duration_MTurk/v2_DepthDuration_HTML.html#8,8,1600,789,1600,900,9-11-2021,14-50-23,79,depth_duration_stimuli/001806_2014-06-26_20-50-20_260595134347_rgbf000091-resize_1/001806_2014-06-26_20-50-20_260595134347_rgbf000091-resize_1-target.png,500,2.7305,0.9144000000000001,2603,500,feet,750381,902117,44,Man
81,710814,DepthScenes,duration_manipulation_targetAtFixation,jsons/ad_3.json,http://100.27.21.195/DepthDuration/v2_depth_duration_MTurk/v2_DepthDuration_HTML.html#8,8,1600,789,1600,900,9-11-2021,14-50-23,82,depth_duration_stimuli/003423_2014-05-21_10-23-26_094959634447_rgbf002665-resize_2/003423_2014-05-21_10-23-26_094959634447_rgbf002665-resize_2-target.png,500,3.2575,2.7432000000000003,3667,499,feet,750381,902117,44,Man
89,710814,DepthScenes,duration_manipulation_targetAtFixation,jsons/ad_3.json,http://100.27.21.195/DepthDuration/v2_depth_duration_MTurk/v2_DepthDuration_HTML.html#8,8,1600,789,1600,900,9-11-2021,14-50-23,90,depth_duration_stimuli/001618_2014-06-20_11-37-31_260595134347_rgbf000027-resize_3/001618_2014-06-20_11-37-31_260595134347_rgbf000027-resize_3-target.png,500,1.8725,0.9144000000000001,2410,499,feet,750381,902117,44,Man
92,710814,DepthScenes,duration_manipulation_targetAtFixation,jsons/ad_3.json,http://100.27.21.195/DepthDuration/v2_depth_duration_MTurk/v2_DepthDuration_HTML.html#8,8,1600,789,1600,900,9-11-2021,14-50-23,93,depth_duration_stimuli/001167_2014-06-17_15-38-07_260595134347_rgbf000108-resize_0/001167_2014-06-17_15-38-07_260595134347_rgbf000108-resize_0-target.png,500,1.8505,1.2192,1946,500,feet,750381,902117,44,Man
104,710814,DepthScenes,duration_manipulation_targetAtFixation,jsons/ad_3.json,http://100.27.21.195/DepthDuration/v2_depth_duration_MTurk/v2_DepthDuration_HTML.html#8,8,1600,789,1600,900,9-11-2021,14-50-23,105,depth_duration_stimuli/000906_2014-06-08_13-35-43_260595134347_rgbf000155-resize_1/000906_2014-06-08_13-35-43_260595134347_rgbf000155-resize_1-target.png,500,2.849,2.1336,3891,499,feet,750381,902117,44,Man
107,710814,DepthScenes,duration_manipulation_targetAtFixation,jsons/ad_3.json,http://100.27.21.195/DepthDuration/v2_depth_duration_MTurk/v2_DepthDuration_HTML.html#8,8,1600,789,1600,900,9-11-2021,14-50-23,108,depth_duration_stimuli/002139_2014-06-25_21-19-37_260595134347_rgbf000124-resize_2/002139_2014-06-25_21-19-37_260595134347_rgbf000124-resize_2-target.png,500,2.107,0.9144000000000001,2379,500,feet,750381,902117,44,Man
111,710814,DepthScenes,duration_manipulation_targetAtFixation,jsons/ad_3.json,http://100.27.21.195/DepthDuration/v2_depth_duration_MTurk/v2_DepthDuration_HTML.html#8,8,1600,789,1600,900,9-11-2021,14-50-23,112,depth_duration_stimuli/001450_2014-06-19_17-02-03_260595134347_rgbf000203-resize_4/001450_2014-06-19_17-02-03_260595134347_rgbf000203-resize_4-target.png,500,4.0106666666667,2.4384,2307,500,feet,750381,902117,44,Man
117,710814,DepthScenes,duration_manipulation_targetAtFixation,jsons/ad_3.json,http://100.27.21.195/DepthDuration/v2_depth_duration_MTurk/v2_DepthDuration_HTML.html#8,8,1600,789,1600,900,9-11-2021,14-50-23,118,depth_duration_stimuli/001264_2014-06-16_16-10-23_260595134347_rgbf000109-resize_1/001264_2014-06-16_16-10-23_260595134347_rgbf000109-resize_1-target.png,500,2.9665,2.4384,1811,501,feet,750381,902117,44,Man
119,710814,DepthScenes,duration_manipulation_targetAtFixation,jsons/ad_3.json,http://100.27.21.195/DepthDuration/v2_depth_duration_MTurk/v2_DepthDuration_HTML.html#8,8,1600,789,1600,900,9-11-2021,14-50-23,120,depth_duration_stimuli/002131_2014-06-25_21-12-01_260595134347_rgbf000083-resize_0/002131_2014-06-25_21-12-01_260595134347_rgbf000083-resize_0-target.png,500,1.7685,1.2192,2161,499,feet,750381,902117,44,Man
122,710814,DepthScenes,duration_manipulation_targetAtFixation,jsons/ad_3.json,http://100.27.21.195/DepthDuration/v2_depth_duration_MTurk/v2_DepthDuration_HTML.html#8,8,1600,789,1600,900,9-11-2021,14-50-23,123,depth_duration_stimuli/002763_2014-06-22_19-13-10_094959634447_rgbf000075-resize_4/002763_2014-06-22_19-13-10_094959634447_rgbf000075-resize_4-target.png,500,1.68375,2.1336,2611,501,feet,750381,902117,44,Man
127,710814,DepthScenes,duration_manipulation_targetAtFixation,jsons/ad_3.json,http://100.27.21.195/DepthDuration/v2_depth_duration_MTurk/v2_DepthDuration_HTML.html#8,8,1600,789,1600,900,9-11-2021,14-50-23,128,depth_duration_stimuli/003495_2014-05-21_16-01-51_094959634447_rgbf000100-resize_3/003495_2014-05-21_16-01-51_094959634447_rgbf000100-resize_3-target.png,500,1.6255,1.524,5745,499,feet,750381,902117,44,Man
131,710814,DepthScenes,duration_manipulation_targetAtFixation,jsons/ad_3.json,http://100.27.21.195/DepthDuration/v2_depth_duration_MTurk/v2_DepthDuration_HTML.html#8,8,1600,789,1600,900,9-11-2021,14-50-23,132,depth_duration_stimuli/000505_2014-06-08_23-03-23_260595134347_rgbf000091-resize_0/000505_2014-06-08_23-03-23_260595134347_rgbf000091-resize_0-target.png,500,3.3105,0.6096,4918,501,feet,750381,902117,44,Man
132,710814,DepthScenes,duration_manipulation_targetAtFixation,jsons/ad_3.json,http://100.27.21.195/DepthDuration/v2_depth_duration_MTurk/v2_DepthDuration_HTML.html#8,8,1600,789,1600,900,9-11-2021,14-50-23,133,depth_duration_stimuli/000137_2014-05-20_17-04-49_260595134347_rgbf000120-resize_1/000137_2014-05-20_17-04-49_260595134347_rgbf000120-resize_1-target.png,500,3.786,1.524,5269,497,feet,750381,902117,44,Man
138,710814,DepthScenes,duration_manipulation_targetAtFixation,jsons/ad_3.json,http://100.27.21.195/DepthDuration/v2_depth_duration_MTurk/v2_DepthDuration_HTML.html#8,8,1600,789,1600,900,9-11-2021,14-50-23,139,depth_duration_stimuli/001158_2014-06-17_15-32-16_260595134347_rgbf000138-resize_2/001158_2014-06-17_15-32-16_260595134347_rgbf000138-resize_2-target.png,500,4.5315,2.7432000000000003,2259,499,feet,750381,902117,44,Man
142,710814,DepthScenes,duration_manipulation_targetAtFixation,jsons/ad_3.json,http://100.27.21.195/DepthDuration/v2_depth_duration_MTurk/v2_DepthDuration_HTML.html#8,8,1600,789,1600,900,9-11-2021,14-50-23,143,depth_duration_stimuli/003288_2014-05-14_21-50-30_094959634447_rgbf000028-resize_3/003288_2014-05-14_21-50-30_094959634447_rgbf000028-resize_3-target.png,500,3.877,1.524,2331,500,feet,750381,902117,44,Man
143,710814,DepthScenes,duration_manipulation_targetAtFixation,jsons/ad_3.json,http://100.27.21.195/DepthDuration/v2_depth_duration_MTurk/v2_DepthDuration_HTML.html#8,8,1600,789,1600,900,9-11-2021,14-50-23,144,depth_duration_stimuli/001066_2014-06-08_22-03-20_260595134347_rgbf000066-resize_4/001066_2014-06-08_22-03-20_260595134347_rgbf000066-resize_4-target.png,500,4.233,2.7432000000000003,2299,500,feet,750381,902117,44,Man
146,710814,DepthScenes,duration_manipulation_targetAtFixation,jsons/ad_3.json,http://100.27.21.195/DepthDuration/v2_depth_duration_MTurk/v2_DepthDuration_HTML.html#8,8,1600,789,1600,900,9-11-2021,14-50-23,147,depth_duration_stimuli/000780_2014-06-08_22-28-29_260595134347_rgbf000126-resize_1/000780_2014-06-08_22-28-29_260595134347_rgbf000126-resize_1-target.png,500,3.3825,0.6096,2547,500,feet,750381,902117,44,Man
148,710814,DepthScenes,duration_manipulation_targetAtFixation,jsons/ad_3.json,http://100.27.21.195/DepthDuration/v2_depth_duration_MTurk/v2_DepthDuration_HTML.html#8,8,1600,789,1600,900,9-11-2021,14-50-23,149,depth_duration_stimuli/002660_2014-06-13_15-44-18_094959634447_rgbf001878-resize_2/002660_2014-06-13_15-44-18_094959634447_rgbf001878-resize_2-target.png,500,3.576,1.524,2210,499,feet,750381,902117,44,Man
149,710814,DepthScenes,duration_manipulation_targetAtFixation,jsons/ad_3.json,http://100.27.21.195/DepthDuration/v2_depth_duration_MTurk/v2_DepthDuration_HTML.html#8,8,1600,789,1600,900,9-11-2021,14-50-23,150,depth_duration_stimuli/002964_2014-06-08_17-46-11_094959634447_rgbf000091-resize_4/002964_2014-06-08_17-46-11_094959634447_rgbf000091-resize_4-target.png,500,1.691,0.6096,1967,499,feet,750381,902117,44,Man
150,710814,DepthScenes,duration_manipulation_targetAtFixation,jsons/ad_3.json,http://100.27.21.195/DepthDuration/v2_depth_duration_MTurk/v2_DepthDuration_HTML.html#8,8,1600,789,1600,900,9-11-2021,14-50-23,151,depth_duration_stimuli/000830_2014-06-04_19-49-31_260595134347_rgbf000096-resize_2/000830_2014-06-04_19-49-31_260595134347_rgbf000096-resize_2-target.png,500,2.6353333333333,1.2192,2152,501,feet,750381,902117,44,Man
155,710814,DepthScenes,duration_manipulation_targetAtFixation,jsons/ad_3.json,http://100.27.21.195/DepthDuration/v2_depth_duration_MTurk/v2_DepthDuration_HTML.html#8,8,1600,789,1600,900,9-11-2021,14-50-23,156,depth_duration_stimuli/002414_2014-06-28_20-24-58_260595134347_rgbf000067-resize_4/002414_2014-06-28_20-24-58_260595134347_rgbf000067-resize_4-target.png,500,4.363,2.7432000000000003,2793,500,feet,750381,902117,44,Man
159,710814,DepthScenes,duration_manipulation_targetAtFixation,jsons/ad_3.json,http://100.27.21.195/DepthDuration/v2_depth_duration_MTurk/v2_DepthDuration_HTML.html#8,8,1600,789,1600,900,9-11-2021,14-50-23,160,depth_duration_stimuli/000483_2014-06-09_20-41-45_260595134347_rgbf000116-resize_4/000483_2014-06-09_20-41-45_260595134347_rgbf000116-resize_4-target.png,500,1.337,0.6096,2132,499,feet,750381,902117,44,Man
162,710814,DepthScenes,duration_manipulation_targetAtFixation,jsons/ad_3.json,http://100.27.21.195/DepthDuration/v2_depth_duration_MTurk/v2_DepthDuration_HTML.html#8,8,1600,789,1600,900,9-11-2021,14-50-23,163,depth_duration_stimuli/000368_2014-06-09_15-53-01_260595134347_rgbf000155-resize_2/000368_2014-06-09_15-53-01_260595134347_rgbf000155-resize_2-target.png,500,2.486,1.8288000000000002,8962,500,feet,750381,902117,44,Man
164,710814,DepthScenes,duration_manipulation_targetAtFixation,jsons/ad_3.json,http://100.27.21.195/DepthDuration/v2_depth_duration_MTurk/v2_DepthDuration_HTML.html#8,8,1600,789,1600,900,9-11-2021,14-50-23,165,depth_duration_stimuli/000556_2014-06-09_22-42-56_260595134347_rgbf000214-resize_1/000556_2014-06-09_22-42-56_260595134347_rgbf000214-resize_1-target.png,500,4.8415,2.7432000000000003,6949,500,feet,750381,902117,44,Man
178,710814,DepthScenes,duration_manipulation_targetAtFixation,jsons/ad_3.json,http://100.27.21.195/DepthDuration/v2_depth_duration_MTurk/v2_DepthDuration_HTML.html#8,8,1600,789,1600,900,9-11-2021,14-50-23,179,depth_duration_stimuli/002545_2014-06-24_13-38-53_094959634447_rgbf000080-resize_4/002545_2014-06-24_13-38-53_094959634447_rgbf000080-resize_4-target.png,500,1.9205,1.524,2231,499,feet,750381,902117,44,Man
180,710814,DepthScenes,duration_manipulation_targetAtFixation,jsons/ad_3.json,http://100.27.21.195/DepthDuration/v2_depth_duration_MTurk/v2_DepthDuration_HTML.html#8,8,1600,789,1600,900,9-11-2021,14-50-23,181,depth_duration_stimuli/000742_2014-06-08_18-48-09_260595134347_rgbf000164-resize_4/000742_2014-06-08_18-48-09_260595134347_rgbf000164-resize_4-target.png,500,4.632,2.4384,1931,501,feet,750381,902117,44,Man
182,710814,DepthScenes,duration_manipulation_targetAtFixation,jsons/ad_3.json,http://100.27.21.195/DepthDuration/v2_depth_duration_MTurk/v2_DepthDuration_HTML.html#8,8,1600,789,1600,900,9-11-2021,14-50-23,183,depth_duration_stimuli/000682_2014-06-08_23-14-58_260595134347_rgbf000041-resize_5/000682_2014-06-08_23-14-58_260595134347_rgbf000041-resize_5-target.png,500,2.724,1.8288000000000002,1920,501,feet,750381,902117,44,Man
190,710814,DepthScenes,duration_manipulation_targetAtFixation,jsons/ad_3.json,http://100.27.21.195/DepthDuration/v2_depth_duration_MTurk/v2_DepthDuration_HTML.html#8,8,1600,789,1600,900,9-11-2021,14-50-23,191,depth_duration_stimuli/001449_2014-06-19_17-01-27_260595134347_rgbf000116-resize_2/001449_2014-06-19_17-01-27_260595134347_rgbf000116-resize_2-target.png,500,3.452,2.4384,1884,500,feet,750381,902117,44,Man
199,665311,DepthScenes,duration_manipulation_targetAtFixation,jsons/ah.json,http://35.173.220.167/DepthDuration/v2_depth_duration_MTurk/v2_DepthDuration_HTML.html#1,1,1150,643,1366,768,9-7-2021,14-55-22,8,depth_duration_stimuli/002139_2014-06-25_21-19-37_260595134347_rgbf000124-resize_2/002139_2014-06-25_21-19-37_260595134347_rgbf000124-resize_2-target.png,500,2.107,1.524,2944,491,feet,1149535,1196883,25,Man
200,665311,DepthScenes,duration_manipulation_targetAtFixation,jsons/ah.json,http://35.173.220.167/DepthDuration/v2_depth_duration_MTurk/v2_DepthDuration_HTML.html#1,1,1150,643,1366,768,9-7-2021,14-55-22,9,depth_duration_stimuli/001148_2014-06-17_15-26-42_260595134347_rgbf000129-resize_0/001148_2014-06-17_15-26-42_260595134347_rgbf000129-resize_0-target.png,500,4.368,1.2192,3707,500,feet,1149535,1196883,25,Man
201,665311,DepthScenes,duration_manipulation_targetAtFixation,jsons/ah.json,http://35.173.220.167/DepthDuration/v2_depth_duration_MTurk/v2_DepthDuration_HTML.html#1,1,1150,643,1366,768,9-7-2021,14-55-22,10,depth_duration_stimuli/003083_2014-06-15_15-21-03_094959634447_rgbf000063-resize_1/003083_2014-06-15_15-21-03_094959634447_rgbf000063-resize_1-target.png,500,4.1405,1.524,2968,492,feet,1149535,1196883,25,Man
204,665311,DepthScenes,duration_manipulation_targetAtFixation,jsons/ah.json,http://35.173.220.167/DepthDuration/v2_depth_duration_MTurk/v2_DepthDuration_HTML.html#1,1,1150,643,1366,768,9-7-2021,14-55-22,13,depth_duration_stimuli/001164_2014-06-17_15-35-46_260595134347_rgbf000085-resize_3/001164_2014-06-17_15-35-46_260595134347_rgbf000085-resize_3-target.png,500,2.354,2.4384,3007,497,feet,1149535,1196883,25,Man
206,665311,DepthScenes,duration_manipulation_targetAtFixation,jsons/ah.json,http://35.173.220.167/DepthDuration/v2_depth_duration_MTurk/v2_DepthDuration_HTML.html#1,1,1150,643,1366,768,9-7-2021,14-55-22,15,depth_duration_stimuli/002987_2014-06-08_18-48-20_094959634447_rgbf000022-resize_0/002987_2014-06-08_18-48-20_094959634447_rgbf000022-resize_0-target.png,500,2.6775,1.8288000000000002,3204,500,feet,1149535,1196883,25,Man
209,665311,DepthScenes,duration_manipulation_targetAtFixation,jsons/ah.json,http://35.173.220.167/DepthDuration/v2_depth_duration_MTurk/v2_DepthDuration_HTML.html#1,1,1150,643,1366,768,9-7-2021,14-55-22,18,depth_duration_stimuli/000866_2014-06-09_20-45-42_260595134347_rgbf000139-resize_1/000866_2014-06-09_20-45-42_260595134347_rgbf000139-resize_1-target.png,500,3.2155,1.524,3138,497,feet,1149535,1196883,25,Man
218,665311,DepthScenes,duration_manipulation_targetAtFixation,jsons/ah.json,http://35.173.220.167/DepthDuration/v2_depth_duration_MTurk/v2_DepthDuration_HTML.html#1,1,1150,643,1366,768,9-7-2021,14-55-22,27,depth_duration_stimuli/001136_2014-06-17_15-19-41_260595134347_rgbf000076-resize_3/001136_2014-06-17_15-19-41_260595134347_rgbf000076-resize_3-target.png,500,1.8655,3.048,3983,501,feet,1149535,1196883,25,Man
219,665311,DepthScenes,duration_manipulation_targetAtFixation,jsons/ah.json,http://35.173.220.167/DepthDuration/v2_depth_duration_MTurk/v2_DepthDuration_HTML.html#1,1,1150,643,1366,768,9-7-2021,14-55-22,28,depth_duration_stimuli/000758_2014-06-08_22-05-08_260595134347_rgbf000085-resize_0/000758_2014-06-08_22-05-08_260595134347_rgbf000085-resize_0-target.png,500,3.381,2.4384,2969,489,feet,1149535,1196883,25,Man
225,665311,DepthScenes,duration_manipulation_targetAtFixation,jsons/ah.json,http://35.173.220.167/DepthDuration/v2_depth_duration_MTurk/v2_DepthDuration_HTML.html#1,1,1150,643,1366,768,9-7-2021,14-55-22,34,depth_duration_stimuli/000542_2014-06-08_18-27-08_260595134347_rgbf000118-resize_1/000542_2014-06-08_18-27-08_260595134347_rgbf000118-resize_1-target.png,500,3.0,1.2192,3275,512,feet,1149535,1196883,25,Man
227,665311,DepthScenes,duration_manipulation_targetAtFixation,jsons/ah.json,http://35.173.220.167/DepthDuration/v2_depth_duration_MTurk/v2_DepthDuration_HTML.html#1,1,1150,643,1366,768,9-7-2021,14-55-22,36,depth_duration_stimuli/001133_2014-06-17_14-49-16_260595134347_rgbf000100-resize_0/001133_2014-06-17_14-49-16_260595134347_rgbf000100-resize_0-target.png,500,4.2115,2.4384,3138,497,feet,1149535,1196883,25,Man
228,665311,DepthScenes,duration_manipulation_targetAtFixation,jsons/ah.json,http://35.173.220.167/DepthDuration/v2_depth_duration_MTurk/v2_DepthDuration_HTML.html#1,1,1150,643,1366,768,9-7-2021,14-55-22,37,depth_duration_stimuli/000753_2014-06-08_21-57-44_260595134347_rgbf000123-resize_3/000753_2014-06-08_21-57-44_260595134347_rgbf000123-resize_3-target.png,500,1.916,1.8288000000000002,2902,501,feet,1149535,1196883,25,Man
236,665311,DepthScenes,duration_manipulation_targetAtFixation,jsons/ah.json,http://35.173.220.167/DepthDuration/v2_depth_duration_MTurk/v2_DepthDuration_HTML.html#1,1,1150,643,1366,768,9-7-2021,14-55-22,45,depth_duration_stimuli/002131_2014-06-25_21-12-01_260595134347_rgbf000083-resize_0/002131_2014-06-25_21-12-01_260595134347_rgbf000083-resize_0-target.png,500,1.7685,2.4384,2968,507,feet,1149535,1196883,25,Man
241,665311,DepthScenes,duration_manipulation_targetAtFixation,jsons/ah.json,http://35.173.220.167/DepthDuration/v2_depth_duration_MTurk/v2_DepthDuration_HTML.html#1,1,1150,643,1366,768,9-7-2021,14-55-22,50,depth_duration_stimuli/002043_2014-06-24_20-29-38_260595134347_rgbf000039-resize_4/002043_2014-06-24_20-29-38_260595134347_rgbf000039-resize_4-target.png,500,2.8435,1.524,3203,508,feet,1149535,1196883,25,Man
244,665311,DepthScenes,duration_manipulation_targetAtFixation,jsons/ah.json,http://35.173.220.167/DepthDuration/v2_depth_duration_MTurk/v2_DepthDuration_HTML.html#1,1,1150,643,1366,768,9-7-2021,14-55-22,53,depth_duration_stimuli/000927_2014-06-09_16-32-30_260595134347_rgbf000123-resize_3/000927_2014-06-09_16-32-30_260595134347_rgbf000123-resize_3-target.png,500,2.6785,2.4384,2896,496,feet,1149535,1196883,25,Man
250,665311,DepthScenes,duration_manipulation_targetAtFixation,jsons/ah.json,http://35.173.220.167/DepthDuration/v2_depth_duration_MTurk/v2_DepthDuration_HTML.html#1,1,1150,643,1366,768,9-7-2021,14-55-22,59,depth_duration_stimuli/000486_2014-06-09_20-47-20_260595134347_rgbf000143-resize_2/000486_2014-06-09_20-47-20_260595134347_rgbf000143-resize_2-target.png,500,4.8325,2.1336,3072,495,feet,1149535,1196883,25,Man
252,665311,DepthScenes,duration_manipulation_targetAtFixation,jsons/ah.json,http://35.173.220.167/DepthDuration/v2_depth_duration_MTurk/v2_DepthDuration_HTML.html#1,1,1150,643,1366,768,9-7-2021,14-55-22,61,depth_duration_stimuli/001417_2014-06-19_16-25-36_260595134347_rgbf000115-resize_5/001417_2014-06-19_16-25-36_260595134347_rgbf000115-resize_5-target.png,500,4.6255,2.4384,4457,497,feet,1149535,1196883,25,Man
253,665311,DepthScenes,duration_manipulation_targetAtFixation,jsons/ah.json,http://35.173.220.167/DepthDuration/v2_depth_duration_MTurk/v2_DepthDuration_HTML.html#1,1,1150,643,1366,768,9-7-2021,14-55-22,62,depth_duration_stimuli/000368_2014-06-09_15-53-01_260595134347_rgbf000155-resize_2/000368_2014-06-09_15-53-01_260595134347_rgbf000155-resize_2-target.png,500,2.486,1.2192,4055,489,feet,1149535,1196883,25,Man
255,665311,DepthScenes,duration_manipulation_targetAtFixation,jsons/ah.json,http://35.173.220.167/DepthDuration/v2_depth_duration_MTurk/v2_DepthDuration_HTML.html#1,1,1150,643,1366,768,9-7-2021,14-55-22,64,depth_duration_stimuli/001571_2014-06-20_17-21-32_260595134347_rgbf000089-resize_1/001571_2014-06-20_17-21-32_260595134347_rgbf000089-resize_1-target.png,500,1.86,2.4384,2925,504,feet,1149535,1196883,25,Man
272,665311,DepthScenes,duration_manipulation_targetAtFixation,jsons/ah.json,http://35.173.220.167/DepthDuration/v2_depth_duration_MTurk/v2_DepthDuration_HTML.html#1,1,1150,643,1366,768,9-7-2021,14-55-22,81,depth_duration_stimuli/000493_2014-06-09_21-01-18_260595134347_rgbf000196-resize_3/000493_2014-06-09_21-01-18_260595134347_rgbf000196-resize_3-target.png,500,3.44,3.048,5741,507,feet,1149535,1196883,25,Man
273,665311,DepthScenes,duration_manipulation_targetAtFixation,jsons/ah.json,http://35.173.220.167/DepthDuration/v2_depth_duration_MTurk/v2_DepthDuration_HTML.html#1,1,1150,643,1366,768,9-7-2021,14-55-22,82,depth_duration_stimuli/003048_2014-06-15_13-49-43_094959634447_rgbf000150-resize_1/003048_2014-06-15_13-49-43_094959634447_rgbf000150-resize_1-target.png,500,4.0035,3.048,3281,499,feet,1149535,1196883,25,Man
276,665311,DepthScenes,duration_manipulation_targetAtFixation,jsons/ah.json,http://35.173.220.167/DepthDuration/v2_depth_duration_MTurk/v2_DepthDuration_HTML.html#1,1,1150,643,1366,768,9-7-2021,14-55-22,85,depth_duration_stimuli/001584_2014-06-20_11-07-43_260595134347_rgbf000002-resize_1/001584_2014-06-20_11-07-43_260595134347_rgbf000002-resize_1-target.png,500,3.53,3.048,3176,497,feet,1149535,1196883,25,Man
282,665311,DepthScenes,duration_manipulation_targetAtFixation,jsons/ah.json,http://35.173.220.167/DepthDuration/v2_depth_duration_MTurk/v2_DepthDuration_HTML.html#1,1,1150,643,1366,768,9-7-2021,14-55-22,91,depth_duration_stimuli/003338_2014-05-20_11-01-23_094959634447_rgbf000051-resize_6/003338_2014-05-20_11-01-23_094959634447_rgbf000051-resize_6-target.png,500,1.693,1.2192,4183,496,feet,1149535,1196883,25,Man
284,665311,DepthScenes,duration_manipulation_targetAtFixation,jsons/ah.json,http://35.173.220.167/DepthDuration/v2_depth_duration_MTurk/v2_DepthDuration_HTML.html#1,1,1150,643,1366,768,9-7-2021,14-55-22,93,depth_duration_stimuli/002953_2014-06-08_17-32-18_094959634447_rgbf000059-resize_5/002953_2014-06-08_17-32-18_094959634447_rgbf000059-resize_5-target.png,500,1.551,1.8288000000000002,3167,500,feet,1149535,1196883,25,Man
286,665311,DepthScenes,duration_manipulation_targetAtFixation,jsons/ah.json,http://35.173.220.167/DepthDuration/v2_depth_duration_MTurk/v2_DepthDuration_HTML.html#1,1,1150,643,1366,768,9-7-2021,14-55-22,95,depth_duration_stimuli/001197_2014-06-17_16-01-50_260595134347_rgbf000103-resize_4/001197_2014-06-17_16-01-50_260595134347_rgbf000103-resize_4-target.png,500,3.4025,2.1336,4951,497,feet,1149535,1196883,25,Man
292,665311,DepthScenes,duration_manipulation_targetAtFixation,jsons/ah.json,http://35.173.220.167/DepthDuration/v2_depth_duration_MTurk/v2_DepthDuration_HTML.html#1,1,1150,643,1366,768,9-7-2021,14-55-22,101,depth_duration_stimuli/001244_2014-06-17_16-47-45_260595134347_rgbf000030-resize_4/001244_2014-06-17_16-47-45_260595134347_rgbf000030-resize_4-target.png,500,2.0425,1.524,3778,503,feet,1149535,1196883,25,Man
293,665311,DepthScenes,duration_manipulation_targetAtFixation,jsons/ah.json,http://35.173.220.167/DepthDuration/v2_depth_duration_MTurk/v2_DepthDuration_HTML.html#1,1,1150,643,1366,768,9-7-2021,14-55-22,102,depth_duration_stimuli/000109_2014-05-14_23-41-52_260595134347_rgbf000035-resize_9/000109_2014-05-14_23-41-52_260595134347_rgbf000035-resize_9-target.png,500,1.3545,1.524,2914,491,feet,1149535,1196883,25,Man
294,665311,DepthScenes,duration_manipulation_targetAtFixation,jsons/ah.json,http://35.173.220.167/DepthDuration/v2_depth_duration_MTurk/v2_DepthDuration_HTML.html#1,1,1150,643,1366,768,9-7-2021,14-55-22,103,depth_duration_stimuli/002213_2014-06-28_18-37-58_260595134347_rgbf000055-resize_1/002213_2014-06-28_18-37-58_260595134347_rgbf000055-resize_1-target.png,500,3.62,1.524,31097,510,feet,1149535,1196883,25,Man
299,665311,DepthScenes,duration_manipulation_targetAtFixation,jsons/ah.json,http://35.173.220.167/DepthDuration/v2_depth_duration_MTurk/v2_DepthDuration_HTML.html#1,1,1150,643,1366,768,9-7-2021,14-55-22,108,depth_duration_stimuli/002657_2014-06-13_15-29-54_094959634447_rgbf000150-resize_1/002657_2014-06-13_15-29-54_094959634447_rgbf000150-resize_1-target.png,500,4.919,2.4384,3070,494,feet,1149535,1196883,25,Man
302,665311,DepthScenes,duration_manipulation_targetAtFixation,jsons/ah.json,http://35.173.220.167/DepthDuration/v2_depth_duration_MTurk/v2_DepthDuration_HTML.html#1,1,1150,643,1366,768,9-7-2021,14-55-22,111,depth_duration_stimuli/001806_2014-06-26_20-50-20_260595134347_rgbf000091-resize_1/001806_2014-06-26_20-50-20_260595134347_rgbf000091-resize_1-target.png,500,2.7305,1.524,3363,508,feet,1149535,1196883,25,Man
303,665311,DepthScenes,duration_manipulation_targetAtFixation,jsons/ah.json,http://35.173.220.167/DepthDuration/v2_depth_duration_MTurk/v2_DepthDuration_HTML.html#1,1,1150,643,1366,768,9-7-2021,14-55-22,112,depth_duration_stimuli/000009_2014-05-26_14-32-05_260595134347_rgbf000034-resize_3/000009_2014-05-26_14-32-05_260595134347_rgbf000034-resize_3-target.png,500,3.8715,2.4384,2967,491,feet,1149535,1196883,25,Man
304,665311,DepthScenes,duration_manipulation_targetAtFixation,jsons/ah.json,http://35.173.220.167/DepthDuration/v2_depth_duration_MTurk/v2_DepthDuration_HTML.html#1,1,1150,643,1366,768,9-7-2021,14-55-22,113,depth_duration_stimuli/001066_2014-06-08_22-03-20_260595134347_rgbf000066-resize_4/001066_2014-06-08_22-03-20_260595134347_rgbf000066-resize_4-target.png,500,4.233,1.524,2960,488,feet,1149535,1196883,25,Man
310,665311,DepthScenes,duration_manipulation_targetAtFixation,jsons/ah.json,http://35.173.220.167/DepthDuration/v2_depth_duration_MTurk/v2_DepthDuration_HTML.html#1,1,1150,643,1366,768,9-7-2021,14-55-22,119,depth_duration_stimuli/002637_2014-06-24_14-51-13_094959634447_rgbf000066-resize_4/002637_2014-06-24_14-51-13_094959634447_rgbf000066-resize_4-target.png,500,1.9955,1.524,22891,509,feet,1149535,1196883,25,Man
321,665311,DepthScenes,duration_manipulation_targetAtFixation,jsons/ah.json,http://35.173.220.167/DepthDuration/v2_depth_duration_MTurk/v2_DepthDuration_HTML.html#1,1,1150,643,1366,768,9-7-2021,14-55-22,130,depth_duration_stimuli/003092_2014-06-24_21-01-49_094959634447_rgbf000049-resize_2/003092_2014-06-24_21-01-49_094959634447_rgbf000049-resize_2-target.png,500,1.666,1.524,3598,507,feet,1149535,1196883,25,Man
329,665311,DepthScenes,duration_manipulation_targetAtFixation,jsons/ah.json,http://35.173.220.167/DepthDuration/v2_depth_duration_MTurk/v2_DepthDuration_HTML.html#1,1,1150,643,1366,768,9-7-2021,14-55-22,138,depth_duration_stimuli/002663_2014-06-13_15-50-26_094959634447_rgbf000075-resize_1/002663_2014-06-13_15-50-26_094959634447_rgbf000075-resize_1-target.png,500,4.7495,2.1336,3405,484,feet,1149535,1196883,25,Man
330,665311,DepthScenes,duration_manipulation_targetAtFixation,jsons/ah.json,http://35.173.220.167/DepthDuration/v2_depth_duration_MTurk/v2_DepthDuration_HTML.html#1,1,1150,643,1366,768,9-7-2021,14-55-22,139,depth_duration_stimuli/000409_2014-06-04_19-23-33_260595134347_rgbf000067-resize_0/000409_2014-06-04_19-23-33_260595134347_rgbf000067-resize_0-target.png,500,3.7335,1.524,3062,504,feet,1149535,1196883,25,Man
333,665311,DepthScenes,duration_manipulation_targetAtFixation,jsons/ah.json,http://35.173.220.167/DepthDuration/v2_depth_duration_MTurk/v2_DepthDuration_HTML.html#1,1,1150,643,1366,768,9-7-2021,14-55-22,142,depth_duration_stimuli/002758_2014-06-22_19-11-20_094959634447_rgbf000128-resize_1/002758_2014-06-22_19-11-20_094959634447_rgbf000128-resize_1-target.png,500,2.555,1.524,3165,505,feet,1149535,1196883,25,Man
336,665311,DepthScenes,duration_manipulation_targetAtFixation,jsons/ah.json,http://35.173.220.167/DepthDuration/v2_depth_duration_MTurk/v2_DepthDuration_HTML.html#1,1,1150,643,1366,768,9-7-2021,14-55-22,145,depth_duration_stimuli/000502_2014-06-08_23-02-32_260595134347_rgbf000063-resize_4/000502_2014-06-08_23-02-32_260595134347_rgbf000063-resize_4-target.png,500,2.431,1.524,4560,495,feet,1149535,1196883,25,Man
340,665311,DepthScenes,duration_manipulation_targetAtFixation,jsons/ah.json,http://35.173.220.167/DepthDuration/v2_depth_duration_MTurk/v2_DepthDuration_HTML.html#1,1,1150,643,1366,768,9-7-2021,14-55-22,149,depth_duration_stimuli/000917_2014-06-09_22-45-29_260595134347_rgbf000149-resize_3/000917_2014-06-09_22-45-29_260595134347_rgbf000149-resize_3-target.png,500,4.1865,2.1336,3394,508,feet,1149535,1196883,25,Man
347,665311,DepthScenes,duration_manipulation_targetAtFixation,jsons/ah.json,http://35.173.220.167/DepthDuration/v2_depth_duration_MTurk/v2_DepthDuration_HTML.html#1,1,1150,643,1366,768,9-7-2021,14-55-22,156,depth_duration_stimuli/000436_2014-06-09_22-25-11_260595134347_rgbf000137-resize_1/000436_2014-06-09_22-25-11_260595134347_rgbf000137-resize_1-target.png,500,4.0705,2.4384,2985,503,feet,1149535,1196883,25,Man
350,665311,DepthScenes,duration_manipulation_targetAtFixation,jsons/ah.json,http://35.173.220.167/DepthDuration/v2_depth_duration_MTurk/v2_DepthDuration_HTML.html#1,1,1150,643,1366,768,9-7-2021,14-55-22,159,depth_duration_stimuli/000854_2014-06-09_19-43-13_260595134347_rgbf000066-resize_0/000854_2014-06-09_19-43-13_260595134347_rgbf000066-resize_0-target.png,500,3.068,2.4384,4688,505,feet,1149535,1196883,25,Man
353,665311,DepthScenes,duration_manipulation_targetAtFixation,jsons/ah.json,http://35.173.220.167/DepthDuration/v2_depth_duration_MTurk/v2_DepthDuration_HTML.html#1,1,1150,643,1366,768,9-7-2021,14-55-22,162,depth_duration_stimuli/001617_2014-06-20_11-35-32_260595134347_rgbf000066-resize_1/001617_2014-06-20_11-35-32_260595134347_rgbf000066-resize_1-target.png,500,3.791,2.4384,3166,495,feet,1149535,1196883,25,Man
359,665311,DepthScenes,duration_manipulation_targetAtFixation,jsons/ah.json,http://35.173.220.167/DepthDuration/v2_depth_duration_MTurk/v2_DepthDuration_HTML.html#1,1,1150,643,1366,768,9-7-2021,14-55-22,168,depth_duration_stimuli/000506_2014-06-08_23-21-00_260595134347_rgbf000070-resize_7/000506_2014-06-08_23-21-00_260595134347_rgbf000070-resize_7-target.png,500,4.0585,2.1336,4225,512,feet,1149535,1196883,25,Man
366,665311,DepthScenes,duration_manipulation_targetAtFixation,jsons/ah.json,http://35.173.220.167/DepthDuration/v2_depth_duration_MTurk/v2_DepthDuration_HTML.html#1,1,1150,643,1366,768,9-7-2021,14-55-22,175,depth_duration_stimuli/002579_2014-06-24_14-08-03_094959634447_rgbf000061-resize_2/002579_2014-06-24_14-08-03_094959634447_rgbf000061-resize_2-target.png,500,2.223125,1.2192,6512,499,feet,1149535,1196883,25,Man
367,665311,DepthScenes,duration_manipulation_targetAtFixation,jsons/ah.json,http://35.173.220.167/DepthDuration/v2_depth_duration_MTurk/v2_DepthDuration_HTML.html#1,1,1150,643,1366,768,9-7-2021,14-55-22,176,depth_duration_stimuli/002136_2014-06-25_21-18-03_260595134347_rgbf000109-resize_3/002136_2014-06-25_21-18-03_260595134347_rgbf000109-resize_3-target.png,500,1.957,1.524,2823,500,feet,1149535,1196883,25,Man
369,665311,DepthScenes,duration_manipulation_targetAtFixation,jsons/ah.json,http://35.173.220.167/DepthDuration/v2_depth_duration_MTurk/v2_DepthDuration_HTML.html#1,1,1150,643,1366,768,9-7-2021,14-55-22,178,depth_duration_stimuli/002057_2014-06-24_21-00-13_260595134347_rgbf000120-resize_1/002057_2014-06-24_21-00-13_260595134347_rgbf000120-resize_1-target.png,500,2.967,2.7432000000000003,2992,500,feet,1149535,1196883,25,Man
372,665311,DepthScenes,duration_manipulation_targetAtFixation,jsons/ah.json,http://35.173.220.167/DepthDuration/v2_depth_duration_MTurk/v2_DepthDuration_HTML.html#1,1,1150,643,1366,768,9-7-2021,14-55-22,181,depth_duration_stimuli/002425_2014-06-28_20-27-29_260595134347_rgbf000031-resize_8/002425_2014-06-28_20-27-29_260595134347_rgbf000031-resize_8-target.png,500,3.896,2.7432000000000003,3041,492,feet,1149535,1196883,25,Man
375,665311,DepthScenes,duration_manipulation_targetAtFixation,jsons/ah.json,http://35.173.220.167/DepthDuration/v2_depth_duration_MTurk/v2_DepthDuration_HTML.html#1,1,1150,643,1366,768,9-7-2021,14-55-22,184,depth_duration_stimuli/002549_2014-06-24_13-41-39_094959634447_rgbf000022-resize_3/002549_2014-06-24_13-41-39_094959634447_rgbf000022-resize_3-target.png,500,1.476,1.8288000000000002,47363,491,feet,1149535,1196883,25,Man
376,665311,DepthScenes,duration_manipulation_targetAtFixation,jsons/ah.json,http://35.173.220.167/DepthDuration/v2_depth_duration_MTurk/v2_DepthDuration_HTML.html#1,1,1150,643,1366,768,9-7-2021,14-55-22,185,depth_duration_stimuli/001555_2014-06-20_17-12-10_260595134347_rgbf000065-resize_4/001555_2014-06-20_17-12-10_260595134347_rgbf000065-resize_4-target.png,500,1.633,1.524,3326,508,feet,1149535,1196883,25,Man
389,401808,DepthScenes,duration_manipulation_targetAtFixation,jsons/al_3.json,http://35.173.220.167/DepthDuration/v2_depth_duration_MTurk/v2_DepthDuration_HTML.html#47,47,1366,768,1366,768,9-5-2021,8-5-19,6,depth_duration_stimuli/002549_2014-06-24_13-41-39_094959634447_rgbf000022-resize_3/002549_2014-06-24_13-41-39_094959634447_rgbf000022-resize_3-target.png,500,1.476,0.9144000000000001,2611,497,feet,664040,772718,36,Man
390,401808,DepthScenes,duration_manipulation_targetAtFixation,jsons/al_3.json,http://35.173.220.167/DepthDuration/v2_depth_duration_MTurk/v2_DepthDuration_HTML.html#47,47,1366,768,1366,768,9-5-2021,8-5-19,7,depth_duration_stimuli/002630_2014-06-24_14-47-50_094959634447_rgbf000055-resize_1/002630_2014-06-24_14-47-50_094959634447_rgbf000055-resize_1-target.png,500,3.0095,3.6576000000000004,3997,491,feet,664040,772718,36,Man
400,401808,DepthScenes,duration_manipulation_targetAtFixation,jsons/al_3.json,http://35.173.220.167/DepthDuration/v2_depth_duration_MTurk/v2_DepthDuration_HTML.html#47,47,1366,768,1366,768,9-5-2021,8-5-19,17,depth_duration_stimuli/002748_2014-06-22_19-07-22_094959634447_rgbf000078-resize_1/002748_2014-06-22_19-07-22_094959634447_rgbf000078-resize_1-target.png,500,4.6705,4.572,4225,499,feet,664040,772718,36,Man
405,401808,DepthScenes,duration_manipulation_targetAtFixation,jsons/al_3.json,http://35.173.220.167/DepthDuration/v2_depth_duration_MTurk/v2_DepthDuration_HTML.html#47,47,1366,768,1366,768,9-5-2021,8-5-19,22,depth_duration_stimuli/001092_2014-06-15_17-34-58_260595134347_rgbf000171-resize_3/001092_2014-06-15_17-34-58_260595134347_rgbf000171-resize_3-target.png,500,2.6935,1.2192,2203,499,feet,664040,772718,36,Man
407,401808,DepthScenes,duration_manipulation_targetAtFixation,jsons/al_3.json,http://35.173.220.167/DepthDuration/v2_depth_duration_MTurk/v2_DepthDuration_HTML.html#47,47,1366,768,1366,768,9-5-2021,8-5-19,24,depth_duration_stimuli/001214_2014-06-17_16-13-55_260595134347_rgbf000111-resize_0/001214_2014-06-17_16-13-55_260595134347_rgbf000111-resize_0-target.png,500,2.6505,2.1336,2420,491,feet,664040,772718,36,Man
414,401808,DepthScenes,duration_manipulation_targetAtFixation,jsons/al_3.json,http://35.173.220.167/DepthDuration/v2_depth_duration_MTurk/v2_DepthDuration_HTML.html#47,47,1366,768,1366,768,9-5-2021,8-5-19,31,depth_duration_stimuli/001029_2014-06-08_13-17-57_260595134347_rgbf000065-resize_1/001029_2014-06-08_13-17-57_260595134347_rgbf000065-resize_1-target.png,500,3.0835,2.1336,2720,507,feet,664040,772718,36,Man
415,401808,DepthScenes,duration_manipulation_targetAtFixation,jsons/al_3.json,http://35.173.220.167/DepthDuration/v2_depth_duration_MTurk/v2_DepthDuration_HTML.html#47,47,1366,768,1366,768,9-5-2021,8-5-19,32,depth_duration_stimuli/002657_2014-06-13_15-29-54_094959634447_rgbf000150-resize_1/002657_2014-06-13_15-29-54_094959634447_rgbf000150-resize_1-target.png,500,4.919,3.3528000000000002,2340,499,feet,664040,772718,36,Man
416,401808,DepthScenes,duration_manipulation_targetAtFixation,jsons/al_3.json,http://35.173.220.167/DepthDuration/v2_depth_duration_MTurk/v2_DepthDuration_HTML.html#47,47,1366,768,1366,768,9-5-2021,8-5-19,33,depth_duration_stimuli/002660_2014-06-13_15-44-18_094959634447_rgbf001878-resize_2/002660_2014-06-13_15-44-18_094959634447_rgbf001878-resize_2-target.png,500,3.576,2.7432000000000003,3921,508,feet,664040,772718,36,Man
422,401808,DepthScenes,duration_manipulation_targetAtFixation,jsons/al_3.json,http://35.173.220.167/DepthDuration/v2_depth_duration_MTurk/v2_DepthDuration_HTML.html#47,47,1366,768,1366,768,9-5-2021,8-5-19,39,depth_duration_stimuli/000753_2014-06-08_21-57-44_260595134347_rgbf000123-resize_3/000753_2014-06-08_21-57-44_260595134347_rgbf000123-resize_3-target.png,500,1.916,0.9144000000000001,2004,499,feet,664040,772718,36,Man
427,401808,DepthScenes,duration_manipulation_targetAtFixation,jsons/al_3.json,http://35.173.220.167/DepthDuration/v2_depth_duration_MTurk/v2_DepthDuration_HTML.html#47,47,1366,768,1366,768,9-5-2021,8-5-19,44,depth_duration_stimuli/002637_2014-06-24_14-51-13_094959634447_rgbf000066-resize_4/002637_2014-06-24_14-51-13_094959634447_rgbf000066-resize_4-target.png,500,1.9955,1.8288000000000002,2539,500,feet,664040,772718,36,Man
429,401808,DepthScenes,duration_manipulation_targetAtFixation,jsons/al_3.json,http://35.173.220.167/DepthDuration/v2_depth_duration_MTurk/v2_DepthDuration_HTML.html#47,47,1366,768,1366,768,9-5-2021,8-5-19,46,depth_duration_stimuli/000447_2014-06-08_16-15-46_260595134347_rgbf000130-resize_1/000447_2014-06-08_16-15-46_260595134347_rgbf000130-resize_1-target.png,500,4.479,3.9624,2437,497,feet,664040,772718,36,Man
434,401808,DepthScenes,duration_manipulation_targetAtFixation,jsons/al_3.json,http://35.173.220.167/DepthDuration/v2_depth_duration_MTurk/v2_DepthDuration_HTML.html#47,47,1366,768,1366,768,9-5-2021,8-5-19,51,depth_duration_stimuli/003083_2014-06-15_15-21-03_094959634447_rgbf000063-resize_1/003083_2014-06-15_15-21-03_094959634447_rgbf000063-resize_1-target.png,500,4.1405,3.6576000000000004,4988,490,feet,664040,772718,36,Man
440,401808,DepthScenes,duration_manipulation_targetAtFixation,jsons/al_3.json,http://35.173.220.167/DepthDuration/v2_depth_duration_MTurk/v2_DepthDuration_HTML.html#47,47,1366,768,1366,768,9-5-2021,8-5-19,57,depth_duration_stimuli/002139_2014-06-25_21-19-37_260595134347_rgbf000124-resize_2/002139_2014-06-25_21-19-37_260595134347_rgbf000124-resize_2-target.png,500,2.107,0.9144000000000001,1953,499,feet,664040,772718,36,Man
445,401808,DepthScenes,duration_manipulation_targetAtFixation,jsons/al_3.json,http://35.173.220.167/DepthDuration/v2_depth_duration_MTurk/v2_DepthDuration_HTML.html#47,47,1366,768,1366,768,9-5-2021,8-5-19,62,depth_duration_stimuli/000522_2014-06-08_13-35-06_260595134347_rgbf000244-resize_1/000522_2014-06-08_13-35-06_260595134347_rgbf000244-resize_1-target.png,500,2.3715,1.524,2874,500,feet,664040,772718,36,Man
446,401808,DepthScenes,duration_manipulation_targetAtFixation,jsons/al_3.json,http://35.173.220.167/DepthDuration/v2_depth_duration_MTurk/v2_DepthDuration_HTML.html#47,47,1366,768,1366,768,9-5-2021,8-5-19,63,depth_duration_stimuli/000739_2014-06-08_18-45-58_260595134347_rgbf000068-resize_1/000739_2014-06-08_18-45-58_260595134347_rgbf000068-resize_1-target.png,500,3.534,2.1336,2649,499,feet,664040,772718,36,Man
451,401808,DepthScenes,duration_manipulation_targetAtFixation,jsons/al_3.json,http://35.173.220.167/DepthDuration/v2_depth_duration_MTurk/v2_DepthDuration_HTML.html#47,47,1366,768,1366,768,9-5-2021,8-5-19,68,depth_duration_stimuli/002805_2014-06-22_19-54-03_094959634447_rgbf000079-resize_1/002805_2014-06-22_19-54-03_094959634447_rgbf000079-resize_1-target.png,500,3.144,3.9624,2587,506,feet,664040,772718,36,Man
456,401808,DepthScenes,duration_manipulation_targetAtFixation,jsons/al_3.json,http://35.173.220.167/DepthDuration/v2_depth_duration_MTurk/v2_DepthDuration_HTML.html#47,47,1366,768,1366,768,9-5-2021,8-5-19,73,depth_duration_stimuli/002995_2014-06-15_12-31-26_094959634447_rgbf000150-resize_1/002995_2014-06-15_12-31-26_094959634447_rgbf000150-resize_1-target.png,500,3.836,4.2672,2675,498,feet,664040,772718,36,Man
457,401808,DepthScenes,duration_manipulation_targetAtFixation,jsons/al_3.json,http://35.173.220.167/DepthDuration/v2_depth_duration_MTurk/v2_DepthDuration_HTML.html#47,47,1366,768,1366,768,9-5-2021,8-5-19,74,depth_duration_stimuli/002375_2014-06-28_20-13-44_260595134347_rgbf000032-resize_1/002375_2014-06-28_20-13-44_260595134347_rgbf000032-resize_1-target.png,500,4.0175,1.8288000000000002,2463,491,feet,664040,772718,36,Man
461,401808,DepthScenes,duration_manipulation_targetAtFixation,jsons/al_3.json,http://35.173.220.167/DepthDuration/v2_depth_duration_MTurk/v2_DepthDuration_HTML.html#47,47,1366,768,1366,768,9-5-2021,8-5-19,78,depth_duration_stimuli/002784_2014-06-22_19-26-30_094959634447_rgbf000083-resize_3/002784_2014-06-22_19-26-30_094959634447_rgbf000083-resize_3-target.png,500,1.8046666666667,1.2192,1955,492,feet,664040,772718,36,Man
463,401808,DepthScenes,duration_manipulation_targetAtFixation,jsons/al_3.json,http://35.173.220.167/DepthDuration/v2_depth_duration_MTurk/v2_DepthDuration_HTML.html#47,47,1366,768,1366,768,9-5-2021,8-5-19,80,depth_duration_stimuli/002949_2014-06-26_15-57-42_094959634447_rgbf000079-resize_1/002949_2014-06-26_15-57-42_094959634447_rgbf000079-resize_1-target.png,500,1.8915,1.2192,1934,499,feet,664040,772718,36,Man
464,401808,DepthScenes,duration_manipulation_targetAtFixation,jsons/al_3.json,http://35.173.220.167/DepthDuration/v2_depth_duration_MTurk/v2_DepthDuration_HTML.html#47,47,1366,768,1366,768,9-5-2021,8-5-19,81,depth_duration_stimuli/002043_2014-06-24_20-29-38_260595134347_rgbf000039-resize_4/002043_2014-06-24_20-29-38_260595134347_rgbf000039-resize_4-target.png,500,2.8435,2.4384,2947,498,feet,664040,772718,36,Man
472,401808,DepthScenes,duration_manipulation_targetAtFixation,jsons/al_3.json,http://35.173.220.167/DepthDuration/v2_depth_duration_MTurk/v2_DepthDuration_HTML.html#47,47,1366,768,1366,768,9-5-2021,8-5-19,89,depth_duration_stimuli/001066_2014-06-08_22-03-20_260595134347_rgbf000066-resize_4/001066_2014-06-08_22-03-20_260595134347_rgbf000066-resize_4-target.png,500,4.233,5.486400000000001,2805,498,feet,664040,772718,36,Man
475,401808,DepthScenes,duration_manipulation_targetAtFixation,jsons/al_3.json,http://35.173.220.167/DepthDuration/v2_depth_duration_MTurk/v2_DepthDuration_HTML.html#47,47,1366,768,1366,768,9-5-2021,8-5-19,92,depth_duration_stimuli/002763_2014-06-22_19-13-10_094959634447_rgbf000075-resize_4/002763_2014-06-22_19-13-10_094959634447_rgbf000075-resize_4-target.png,500,1.68375,1.524,2909,497,feet,664040,772718,36,Man
480,401808,DepthScenes,duration_manipulation_targetAtFixation,jsons/al_3.json,http://35.173.220.167/DepthDuration/v2_depth_duration_MTurk/v2_DepthDuration_HTML.html#47,47,1366,768,1366,768,9-5-2021,8-5-19,97,depth_duration_stimuli/002445_2014-06-28_20-32-16_260595134347_rgbf000029-resize_4/002445_2014-06-28_20-32-16_260595134347_rgbf000029-resize_4-target.png,500,2.5315,1.524,2256,498,feet,664040,772718,36,Man
484,401808,DepthScenes,duration_manipulation_targetAtFixation,jsons/al_3.json,http://35.173.220.167/DepthDuration/v2_depth_duration_MTurk/v2_DepthDuration_HTML.html#47,47,1366,768,1366,768,9-5-2021,8-5-19,101,depth_duration_stimuli/002509_2014-06-24_13-19-22_094959634447_rgbf000077-resize_0/002509_2014-06-24_13-19-22_094959634447_rgbf000077-resize_0-target.png,500,1.3065,1.2192,3874,484,feet,664040,772718,36,Man
487,401808,DepthScenes,duration_manipulation_targetAtFixation,jsons/al_3.json,http://35.173.220.167/DepthDuration/v2_depth_duration_MTurk/v2_DepthDuration_HTML.html#47,47,1366,768,1366,768,9-5-2021,8-5-19,104,depth_duration_stimuli/000734_2014-06-08_17-39-11_260595134347_rgbf000128-resize_2/000734_2014-06-08_17-39-11_260595134347_rgbf000128-resize_2-target.png,500,4.098,3.3528000000000002,2693,501,feet,664040,772718,36,Man
490,401808,DepthScenes,duration_manipulation_targetAtFixation,jsons/al_3.json,http://35.173.220.167/DepthDuration/v2_depth_duration_MTurk/v2_DepthDuration_HTML.html#47,47,1366,768,1366,768,9-5-2021,8-5-19,107,depth_duration_stimuli/002700_2014-06-22_11-27-02_094959634447_rgbf000124-resize_3/002700_2014-06-22_11-27-02_094959634447_rgbf000124-resize_3-target.png,500,3.301,2.1336,2664,513,feet,664040,772718,36,Man
491,401808,DepthScenes,duration_manipulation_targetAtFixation,jsons/al_3.json,http://35.173.220.167/DepthDuration/v2_depth_duration_MTurk/v2_DepthDuration_HTML.html#47,47,1366,768,1366,768,9-5-2021,8-5-19,108,depth_duration_stimuli/001199_2014-06-17_16-03-48_260595134347_rgbf000077-resize_0/001199_2014-06-17_16-03-48_260595134347_rgbf000077-resize_0-target.png,500,3.4375,3.048,3026,497,feet,664040,772718,36,Man
496,401808,DepthScenes,duration_manipulation_targetAtFixation,jsons/al_3.json,http://35.173.220.167/DepthDuration/v2_depth_duration_MTurk/v2_DepthDuration_HTML.html#47,47,1366,768,1366,768,9-5-2021,8-5-19,113,depth_duration_stimuli/003228_2014-05-14_13-42-35_094959634447_rgbf000101-resize_1/003228_2014-05-14_13-42-35_094959634447_rgbf000101-resize_1-target.png,500,1.968,0.9144000000000001,2517,499,feet,664040,772718,36,Man
512,401808,DepthScenes,duration_manipulation_targetAtFixation,jsons/al_3.json,http://35.173.220.167/DepthDuration/v2_depth_duration_MTurk/v2_DepthDuration_HTML.html#47,47,1366,768,1366,768,9-5-2021,8-5-19,129,depth_duration_stimuli/002464_2014-06-28_20-36-57_260595134347_rgbf000029-resize_0/002464_2014-06-28_20-36-57_260595134347_rgbf000029-resize_0-target.png,500,3.9525,1.8288000000000002,2966,499,feet,664040,772718,36,Man
515,401808,DepthScenes,duration_manipulation_targetAtFixation,jsons/al_3.json,http://35.173.220.167/DepthDuration/v2_depth_duration_MTurk/v2_DepthDuration_HTML.html#47,47,1366,768,1366,768,9-5-2021,8-5-19,132,depth_duration_stimuli/002639_2014-06-24_14-51-37_094959634447_rgbf000074-resize_4/002639_2014-06-24_14-51-37_094959634447_rgbf000074-resize_4-target.png,500,4.0375,3.3528000000000002,3276,501,feet,664040,772718,36,Man
519,401808,DepthScenes,duration_manipulation_targetAtFixation,jsons/al_3.json,http://35.173.220.167/DepthDuration/v2_depth_duration_MTurk/v2_DepthDuration_HTML.html#47,47,1366,768,1366,768,9-5-2021,8-5-19,136,depth_duration_stimuli/001571_2014-06-20_17-21-32_260595134347_rgbf000089-resize_1/001571_2014-06-20_17-21-32_260595134347_rgbf000089-resize_1-target.png,500,1.86,1.2192,2084,479,feet,664040,772718,36,Man
520,401808,DepthScenes,duration_manipulation_targetAtFixation,jsons/al_3.json,http://35.173.220.167/DepthDuration/v2_depth_duration_MTurk/v2_DepthDuration_HTML.html#47,47,1366,768,1366,768,9-5-2021,8-5-19,137,depth_duration_stimuli/000749_2014-06-08_21-55-06_260595134347_rgbf000070-resize_2/000749_2014-06-08_21-55-06_260595134347_rgbf000070-resize_2-target.png,500,2.331,2.4384,2449,497,feet,664040,772718,36,Man
522,401808,DepthScenes,duration_manipulation_targetAtFixation,jsons/al_3.json,http://35.173.220.167/DepthDuration/v2_depth_duration_MTurk/v2_DepthDuration_HTML.html#47,47,1366,768,1366,768,9-5-2021,8-5-19,139,depth_duration_stimuli/002057_2014-06-24_21-00-13_260595134347_rgbf000120-resize_1/002057_2014-06-24_21-00-13_260595134347_rgbf000120-resize_1-target.png,500,2.967,2.4384,2513,506,feet,664040,772718,36,Man
526,401808,DepthScenes,duration_manipulation_targetAtFixation,jsons/al_3.json,http://35.173.220.167/DepthDuration/v2_depth_duration_MTurk/v2_DepthDuration_HTML.html#47,47,1366,768,1366,768,9-5-2021,8-5-19,143,depth_duration_stimuli/002988_2014-06-15_12-24-20_094959634447_rgbf000150-resize_1/002988_2014-06-15_12-24-20_094959634447_rgbf000150-resize_1-target.png,500,4.767,2.1336,2844,491,feet,664040,772718,36,Man
532,401808,DepthScenes,duration_manipulation_targetAtFixation,jsons/al_3.json,http://35.173.220.167/DepthDuration/v2_depth_duration_MTurk/v2_DepthDuration_HTML.html#47,47,1366,768,1366,768,9-5-2021,8-5-19,149,depth_duration_stimuli/002344_2014-06-28_20-06-29_260595134347_rgbf000030-resize_1/002344_2014-06-28_20-06-29_260595134347_rgbf000030-resize_1-target.png,500,1.5795,0.6096,2145,494,feet,664040,772718,36,Man
533,401808,DepthScenes,duration_manipulation_targetAtFixation,jsons/al_3.json,http://35.173.220.167/DepthDuration/v2_depth_duration_MTurk/v2_DepthDuration_HTML.html#47,47,1366,768,1366,768,9-5-2021,8-5-19,150,depth_duration_stimuli/003069_2014-06-15_14-57-50_094959634447_rgbf000150-resize_4/003069_2014-06-15_14-57-50_094959634447_rgbf000150-resize_4-target.png,500,4.208,2.7432000000000003,2587,497,feet,664040,772718,36,Man
534,401808,DepthScenes,duration_manipulation_targetAtFixation,jsons/al_3.json,http://35.173.220.167/DepthDuration/v2_depth_duration_MTurk/v2_DepthDuration_HTML.html#47,47,1366,768,1366,768,9-5-2021,8-5-19,151,depth_duration_stimuli/000409_2014-06-04_19-23-33_260595134347_rgbf000067-resize_0/000409_2014-06-04_19-23-33_260595134347_rgbf000067-resize_0-target.png,500,3.7335,2.4384,4992,497,feet,664040,772718,36,Man
537,401808,DepthScenes,duration_manipulation_targetAtFixation,jsons/al_3.json,http://35.173.220.167/DepthDuration/v2_depth_duration_MTurk/v2_DepthDuration_HTML.html#47,47,1366,768,1366,768,9-5-2021,8-5-19,154,depth_duration_stimuli/003338_2014-05-20_11-01-23_094959634447_rgbf000051-resize_6/003338_2014-05-20_11-01-23_094959634447_rgbf000051-resize_6-target.png,500,1.693,0.9144000000000001,2284,501,feet,664040,772718,36,Man
538,401808,DepthScenes,duration_manipulation_targetAtFixation,jsons/al_3.json,http://35.173.220.167/DepthDuration/v2_depth_duration_MTurk/v2_DepthDuration_HTML.html#47,47,1366,768,1366,768,9-5-2021,8-5-19,155,depth_duration_stimuli/001132_2014-06-17_14-48-54_260595134347_rgbf000100-resize_2/001132_2014-06-17_14-48-54_260595134347_rgbf000100-resize_2-target.png,500,3.753,2.4384,2556,500,feet,664040,772718,36,Man
545,401808,DepthScenes,duration_manipulation_targetAtFixation,jsons/al_3.json,http://35.173.220.167/DepthDuration/v2_depth_duration_MTurk/v2_DepthDuration_HTML.html#47,47,1366,768,1366,768,9-5-2021,8-5-19,162,depth_duration_stimuli/001011_2014-06-08_23-18-54_260595134347_rgbf000044-resize_4/001011_2014-06-08_23-18-54_260595134347_rgbf000044-resize_4-target.png,500,2.473,2.1336,2346,495,feet,664040,772718,36,Man
546,401808,DepthScenes,duration_manipulation_targetAtFixation,jsons/al_3.json,http://35.173.220.167/DepthDuration/v2_depth_duration_MTurk/v2_DepthDuration_HTML.html#47,47,1366,768,1366,768,9-5-2021,8-5-19,163,depth_duration_stimuli/001148_2014-06-17_15-26-42_260595134347_rgbf000129-resize_0/001148_2014-06-17_15-26-42_260595134347_rgbf000129-resize_0-target.png,500,4.368,3.048,2351,498,feet,664040,772718,36,Man
549,401808,DepthScenes,duration_manipulation_targetAtFixation,jsons/al_3.json,http://35.173.220.167/DepthDuration/v2_depth_duration_MTurk/v2_DepthDuration_HTML.html#47,47,1366,768,1366,768,9-5-2021,8-5-19,166,depth_duration_stimuli/001244_2014-06-17_16-47-45_260595134347_rgbf000030-resize_4/001244_2014-06-17_16-47-45_260595134347_rgbf000030-resize_4-target.png,500,2.0425,1.8288000000000002,2702,523,feet,664040,772718,36,Man
555,401808,DepthScenes,duration_manipulation_targetAtFixation,jsons/al_3.json,http://35.173.220.167/DepthDuration/v2_depth_duration_MTurk/v2_DepthDuration_HTML.html#47,47,1366,768,1366,768,9-5-2021,8-5-19,172,depth_duration_stimuli/001532_2014-06-20_16-50-41_260595134347_rgbf000081-resize_4/001532_2014-06-20_16-50-41_260595134347_rgbf000081-resize_4-target.png,500,1.5758333333333,0.6096,2009,498,feet,664040,772718,36,Man
561,401808,DepthScenes,duration_manipulation_targetAtFixation,jsons/al_3.json,http://35.173.220.167/DepthDuration/v2_depth_duration_MTurk/v2_DepthDuration_HTML.html#47,47,1366,768,1366,768,9-5-2021,8-5-19,178,depth_duration_stimuli/000869_2014-06-09_20-50-18_260595134347_rgbf000060-resize_3/000869_2014-06-09_20-50-18_260595134347_rgbf000060-resize_3-target.png,500,2.266,1.524,2341,513,feet,664040,772718,36,Man
569,401808,DepthScenes,duration_manipulation_targetAtFixation,jsons/al_3.json,http://35.173.220.167/DepthDuration/v2_depth_duration_MTurk/v2_DepthDuration_HTML.html#47,47,1366,768,1366,768,9-5-2021,8-5-19,186,depth_duration_stimuli/003292_2014-05-14_21-53-49_094959634447_rgbf000100-resize_2/003292_2014-05-14_21-53-49_094959634447_rgbf000100-resize_2-target.png,500,3.4815,2.4384,2705,499,feet,664040,772718,36,Man
573,401808,DepthScenes,duration_manipulation_targetAtFixation,jsons/al_3.json,http://35.173.220.167/DepthDuration/v2_depth_duration_MTurk/v2_DepthDuration_HTML.html#47,47,1366,768,1366,768,9-5-2021,8-5-19,190,depth_duration_stimuli/000735_2014-06-08_18-23-50_260595134347_rgbf000163-resize_2/000735_2014-06-08_18-23-50_260595134347_rgbf000163-resize_2-target.png,500,4.1695,3.9624,3925,499,feet,664040,772718,36,Man
580,811430,DepthScenes,duration_manipulation_targetAtFixation,jsons/af.json,http://34.238.49.31/DepthDuration/v2_depth_duration_MTurk/v2_DepthDuration_HTML.html#17,17,1571,864,1920,1080,9-19-2021,8-12-58,5,depth_duration_stimuli/003083_2014-06-15_15-21-03_094959634447_rgbf000063-resize_1/003083_2014-06-15_15-21-03_094959634447_rgbf000063-resize_1-target.png,500,4.1405,2.4384,2351,485,feet,690249,782584,26,Woman
591,811430,DepthScenes,duration_manipulation_targetAtFixation,jsons/af.json,http://34.238.49.31/DepthDuration/v2_depth_duration_MTurk/v2_DepthDuration_HTML.html#17,17,1571,864,1920,1080,9-19-2021,8-12-58,16,depth_duration_stimuli/002758_2014-06-22_19-11-20_094959634447_rgbf000128-resize_1/002758_2014-06-22_19-11-20_094959634447_rgbf000128-resize_1-target.png,500,2.555,0.9144000000000001,3572,500,feet,690249,782584,26,Woman
592,811430,DepthScenes,duration_manipulation_targetAtFixation,jsons/af.json,http://34.238.49.31/DepthDuration/v2_depth_duration_MTurk/v2_DepthDuration_HTML.html#17,17,1571,864,1920,1080,9-19-2021,8-12-58,17,depth_duration_stimuli/002987_2014-06-08_18-48-20_094959634447_rgbf000022-resize_0/002987_2014-06-08_18-48-20_094959634447_rgbf000022-resize_0-target.png,500,2.6775,1.524,5846,499,feet,690249,782584,26,Woman
594,811430,DepthScenes,duration_manipulation_targetAtFixation,jsons/af.json,http://34.238.49.31/DepthDuration/v2_depth_duration_MTurk/v2_DepthDuration_HTML.html#17,17,1571,864,1920,1080,9-19-2021,8-12-58,19,depth_duration_stimuli/000542_2014-06-08_18-27-08_260595134347_rgbf000118-resize_1/000542_2014-06-08_18-27-08_260595134347_rgbf000118-resize_1-target.png,500,3.0,1.524,2063,490,feet,690249,782584,26,Woman
595,811430,DepthScenes,duration_manipulation_targetAtFixation,jsons/af.json,http://34.238.49.31/DepthDuration/v2_depth_duration_MTurk/v2_DepthDuration_HTML.html#17,17,1571,864,1920,1080,9-19-2021,8-12-58,20,depth_duration_stimuli/001136_2014-06-17_15-19-41_260595134347_rgbf000076-resize_3/001136_2014-06-17_15-19-41_260595134347_rgbf000076-resize_3-target.png,500,1.8655,0.9144000000000001,2294,500,feet,690249,782584,26,Woman
602,811430,DepthScenes,duration_manipulation_targetAtFixation,jsons/af.json,http://34.238.49.31/DepthDuration/v2_depth_duration_MTurk/v2_DepthDuration_HTML.html#17,17,1571,864,1920,1080,9-19-2021,8-12-58,27,depth_duration_stimuli/003092_2014-06-24_21-01-49_094959634447_rgbf000049-resize_2/003092_2014-06-24_21-01-49_094959634447_rgbf000049-resize_2-target.png,500,1.666,1.2192,2198,513,feet,690249,782584,26,Woman
607,811430,DepthScenes,duration_manipulation_targetAtFixation,jsons/af.json,http://34.238.49.31/DepthDuration/v2_depth_duration_MTurk/v2_DepthDuration_HTML.html#17,17,1571,864,1920,1080,9-19-2021,8-12-58,32,depth_duration_stimuli/002414_2014-06-28_20-24-58_260595134347_rgbf000067-resize_4/002414_2014-06-28_20-24-58_260595134347_rgbf000067-resize_4-target.png,500,4.363,2.4384,2558,501,feet,690249,782584,26,Woman
612,811430,DepthScenes,duration_manipulation_targetAtFixation,jsons/af.json,http://34.238.49.31/DepthDuration/v2_depth_duration_MTurk/v2_DepthDuration_HTML.html#17,17,1571,864,1920,1080,9-19-2021,8-12-58,37,depth_duration_stimuli/003534_2014-05-22_15-06-10_094959634447_rgbf000102-resize_4/003534_2014-05-22_15-06-10_094959634447_rgbf000102-resize_4-target.png,500,1.426,0.6096,2549,497,feet,690249,782584,26,Woman
615,811430,DepthScenes,duration_manipulation_targetAtFixation,jsons/af.json,http://34.238.49.31/DepthDuration/v2_depth_duration_MTurk/v2_DepthDuration_HTML.html#17,17,1571,864,1920,1080,9-19-2021,8-12-58,40,depth_duration_stimuli/000917_2014-06-09_22-45-29_260595134347_rgbf000149-resize_3/000917_2014-06-09_22-45-29_260595134347_rgbf000149-resize_3-target.png,500,4.1865,2.4384,2401,499,feet,690249,782584,26,Woman
619,811430,DepthScenes,duration_manipulation_targetAtFixation,jsons/af.json,http://34.238.49.31/DepthDuration/v2_depth_duration_MTurk/v2_DepthDuration_HTML.html#17,17,1571,864,1920,1080,9-19-2021,8-12-58,44,depth_duration_stimuli/000191_2014-05-12_17-07-38_260595134347_rgbf000199-resize_0/000191_2014-05-12_17-07-38_260595134347_rgbf000199-resize_0-target.png,500,3.7995,2.4384,2269,510,feet,690249,782584,26,Woman
622,811430,DepthScenes,duration_manipulation_targetAtFixation,jsons/af.json,http://34.238.49.31/DepthDuration/v2_depth_duration_MTurk/v2_DepthDuration_HTML.html#17,17,1571,864,1920,1080,9-19-2021,8-12-58,47,depth_duration_stimuli/000677_2014-06-08_23-10-32_260595134347_rgbf000158-resize_6/000677_2014-06-08_23-10-32_260595134347_rgbf000158-resize_6-target.png,500,3.556,1.2192,3917,501,feet,690249,782584,26,Woman
623,811430,DepthScenes,duration_manipulation_targetAtFixation,jsons/af.json,http://34.238.49.31/DepthDuration/v2_depth_duration_MTurk/v2_DepthDuration_HTML.html#17,17,1571,864,1920,1080,9-19-2021,8-12-58,48,depth_duration_stimuli/000502_2014-06-08_23-02-32_260595134347_rgbf000063-resize_4/000502_2014-06-08_23-02-32_260595134347_rgbf000063-resize_4-target.png,500,2.431,0.9144000000000001,2277,499,feet,690249,782584,26,Woman
625,811430,DepthScenes,duration_manipulation_targetAtFixation,jsons/af.json,http://34.238.49.31/DepthDuration/v2_depth_duration_MTurk/v2_DepthDuration_HTML.html#17,17,1571,864,1920,1080,9-19-2021,8-12-58,50,depth_duration_stimuli/003070_2014-06-15_14-58-27_094959634447_rgbf000150-resize_3/003070_2014-06-15_14-58-27_094959634447_rgbf000150-resize_3-target.png,500,2.9415,1.524,2456,500,feet,690249,782584,26,Woman
626,811430,DepthScenes,duration_manipulation_targetAtFixation,jsons/af.json,http://34.238.49.31/DepthDuration/v2_depth_duration_MTurk/v2_DepthDuration_HTML.html#17,17,1571,864,1920,1080,9-19-2021,8-12-58,51,depth_duration_stimuli/002365_2014-06-28_20-11-21_260595134347_rgbf000102-resize_1/002365_2014-06-28_20-11-21_260595134347_rgbf000102-resize_1-target.png,500,4.013,2.4384,2360,498,feet,690249,782584,26,Woman
627,811430,DepthScenes,duration_manipulation_targetAtFixation,jsons/af.json,http://34.238.49.31/DepthDuration/v2_depth_duration_MTurk/v2_DepthDuration_HTML.html#17,17,1571,864,1920,1080,9-19-2021,8-12-58,52,depth_duration_stimuli/001570_2014-06-20_17-21-09_260595134347_rgbf000135-resize_4/001570_2014-06-20_17-21-09_260595134347_rgbf000135-resize_4-target.png,500,4.467,2.4384,6299,498,feet,690249,782584,26,Woman
631,811430,DepthScenes,duration_manipulation_targetAtFixation,jsons/af.json,http://34.238.49.31/DepthDuration/v2_depth_duration_MTurk/v2_DepthDuration_HTML.html#17,17,1571,864,1920,1080,9-19-2021,8-12-58,56,depth_duration_stimuli/001532_2014-06-20_16-50-41_260595134347_rgbf000081-resize_4/001532_2014-06-20_16-50-41_260595134347_rgbf000081-resize_4-target.png,500,1.5758333333333,0.3048,2197,499,feet,690249,782584,26,Woman
632,811430,DepthScenes,duration_manipulation_targetAtFixation,jsons/af.json,http://34.238.49.31/DepthDuration/v2_depth_duration_MTurk/v2_DepthDuration_HTML.html#17,17,1571,864,1920,1080,9-19-2021,8-12-58,57,depth_duration_stimuli/001011_2014-06-08_23-18-54_260595134347_rgbf000044-resize_4/001011_2014-06-08_23-18-54_260595134347_rgbf000044-resize_4-target.png,500,2.473,1.8288000000000002,2403,514,feet,690249,782584,26,Woman
640,811430,DepthScenes,duration_manipulation_targetAtFixation,jsons/af.json,http://34.238.49.31/DepthDuration/v2_depth_duration_MTurk/v2_DepthDuration_HTML.html#17,17,1571,864,1920,1080,9-19-2021,8-12-58,65,depth_duration_stimuli/002660_2014-06-13_15-44-18_094959634447_rgbf001878-resize_2/002660_2014-06-13_15-44-18_094959634447_rgbf001878-resize_2-target.png,500,3.576,1.8288000000000002,2612,500,feet,690249,782584,26,Woman
646,811430,DepthScenes,duration_manipulation_targetAtFixation,jsons/af.json,http://34.238.49.31/DepthDuration/v2_depth_duration_MTurk/v2_DepthDuration_HTML.html#17,17,1571,864,1920,1080,9-19-2021,8-12-58,71,depth_duration_stimuli/000854_2014-06-09_19-43-13_260595134347_rgbf000066-resize_0/000854_2014-06-09_19-43-13_260595134347_rgbf000066-resize_0-target.png,500,3.068,0.9144000000000001,1933,501,feet,690249,782584,26,Woman
651,811430,DepthScenes,duration_manipulation_targetAtFixation,jsons/af.json,http://34.238.49.31/DepthDuration/v2_depth_duration_MTurk/v2_DepthDuration_HTML.html#17,17,1571,864,1920,1080,9-19-2021,8-12-58,76,depth_duration_stimuli/002545_2014-06-24_13-38-53_094959634447_rgbf000080-resize_4/002545_2014-06-24_13-38-53_094959634447_rgbf000080-resize_4-target.png,500,1.9205,0.9144000000000001,3876,498,feet,690249,782584,26,Woman
654,811430,DepthScenes,duration_manipulation_targetAtFixation,jsons/af.json,http://34.238.49.31/DepthDuration/v2_depth_duration_MTurk/v2_DepthDuration_HTML.html#17,17,1571,864,1920,1080,9-19-2021,8-12-58,79,depth_duration_stimuli/002272_2014-06-28_18-53-56_260595134347_rgbf000067-resize_2/002272_2014-06-28_18-53-56_260595134347_rgbf000067-resize_2-target.png,500,1.138,0.3048,1881,500,feet,690249,782584,26,Woman
666,811430,DepthScenes,duration_manipulation_targetAtFixation,jsons/af.json,http://34.238.49.31/DepthDuration/v2_depth_duration_MTurk/v2_DepthDuration_HTML.html#17,17,1571,864,1920,1080,9-19-2021,8-12-58,91,depth_duration_stimuli/000414_2014-06-04_19-49-13_260595134347_rgbf000044-resize_0/000414_2014-06-04_19-49-13_260595134347_rgbf000044-resize_0-target.png,500,4.329,1.8288000000000002,4601,500,feet,690249,782584,26,Woman
667,811430,DepthScenes,duration_manipulation_targetAtFixation,jsons/af.json,http://34.238.49.31/DepthDuration/v2_depth_duration_MTurk/v2_DepthDuration_HTML.html#17,17,1571,864,1920,1080,9-19-2021,8-12-58,92,depth_duration_stimuli/001032_2014-06-08_13-23-17_260595134347_rgbf000021-resize_3/001032_2014-06-08_13-23-17_260595134347_rgbf000021-resize_3-target.png,500,3.2725,1.8288000000000002,3255,502,feet,690249,782584,26,Woman
671,811430,DepthScenes,duration_manipulation_targetAtFixation,jsons/af.json,http://34.238.49.31/DepthDuration/v2_depth_duration_MTurk/v2_DepthDuration_HTML.html#17,17,1571,864,1920,1080,9-19-2021,8-12-58,96,depth_duration_stimuli/002139_2014-06-25_21-19-37_260595134347_rgbf000124-resize_2/002139_2014-06-25_21-19-37_260595134347_rgbf000124-resize_2-target.png,500,2.107,1.2192,2602,502,feet,690249,782584,26,Woman
678,811430,DepthScenes,duration_manipulation_targetAtFixation,jsons/af.json,http://34.238.49.31/DepthDuration/v2_depth_duration_MTurk/v2_DepthDuration_HTML.html#17,17,1571,864,1920,1080,9-19-2021,8-12-58,103,depth_duration_stimuli/001167_2014-06-17_15-38-07_260595134347_rgbf000108-resize_0/001167_2014-06-17_15-38-07_260595134347_rgbf000108-resize_0-target.png,500,1.8505,0.6096,2108,499,feet,690249,782584,26,Woman
679,811430,DepthScenes,duration_manipulation_targetAtFixation,jsons/af.json,http://34.238.49.31/DepthDuration/v2_depth_duration_MTurk/v2_DepthDuration_HTML.html#17,17,1571,864,1920,1080,9-19-2021,8-12-58,104,depth_duration_stimuli/002136_2014-06-25_21-18-03_260595134347_rgbf000109-resize_3/002136_2014-06-25_21-18-03_260595134347_rgbf000109-resize_3-target.png,500,1.957,0.9144000000000001,2062,498,feet,690249,782584,26,Woman
683,811430,DepthScenes,duration_manipulation_targetAtFixation,jsons/af.json,http://34.238.49.31/DepthDuration/v2_depth_duration_MTurk/v2_DepthDuration_HTML.html#17,17,1571,864,1920,1080,9-19-2021,8-12-58,108,depth_duration_stimuli/001110_2014-06-15_17-25-28_260595134347_rgbf000150-resize_1/001110_2014-06-15_17-25-28_260595134347_rgbf000150-resize_1-target.png,500,1.7115,1.524,4839,512,feet,690249,782584,26,Woman
689,811430,DepthScenes,duration_manipulation_targetAtFixation,jsons/af.json,http://34.238.49.31/DepthDuration/v2_depth_duration_MTurk/v2_DepthDuration_HTML.html#17,17,1571,864,1920,1080,9-19-2021,8-12-58,114,depth_duration_stimuli/001188_2014-06-17_15-54-10_260595134347_rgbf000090-resize_2/001188_2014-06-17_15-54-10_260595134347_rgbf000090-resize_2-target.png,500,2.744,0.6096,2238,499,feet,690249,782584,26,Woman
692,811430,DepthScenes,duration_manipulation_targetAtFixation,jsons/af.json,http://34.238.49.31/DepthDuration/v2_depth_duration_MTurk/v2_DepthDuration_HTML.html#17,17,1571,864,1920,1080,9-19-2021,8-12-58,117,depth_duration_stimuli/002043_2014-06-24_20-29-38_260595134347_rgbf000039-resize_4/002043_2014-06-24_20-29-38_260595134347_rgbf000039-resize_4-target.png,500,2.8435,1.524,3204,499,feet,690249,782584,26,Woman
695,811430,DepthScenes,duration_manipulation_targetAtFixation,jsons/af.json,http://34.238.49.31/DepthDuration/v2_depth_duration_MTurk/v2_DepthDuration_HTML.html#17,17,1571,864,1920,1080,9-19-2021,8-12-58,120,depth_duration_stimuli/001150_2014-06-17_15-27-34_260595134347_rgbf000108-resize_2/001150_2014-06-17_15-27-34_260595134347_rgbf000108-resize_2-target.png,500,4.0325,2.1336,1951,503,feet,690249,782584,26,Woman
698,811430,DepthScenes,duration_manipulation_targetAtFixation,jsons/af.json,http://34.238.49.31/DepthDuration/v2_depth_duration_MTurk/v2_DepthDuration_HTML.html#17,17,1571,864,1920,1080,9-19-2021,8-12-58,123,depth_duration_stimuli/001133_2014-06-17_14-49-16_260595134347_rgbf000100-resize_0/001133_2014-06-17_14-49-16_260595134347_rgbf000100-resize_0-target.png,500,4.2115,2.4384,2691,499,feet,690249,782584,26,Woman
701,811430,DepthScenes,duration_manipulation_targetAtFixation,jsons/af.json,http://34.238.49.31/DepthDuration/v2_depth_duration_MTurk/v2_DepthDuration_HTML.html#17,17,1571,864,1920,1080,9-19-2021,8-12-58,126,depth_duration_stimuli/003621_2014-05-23_18-06-08_094959634447_rgbf000101-resize_1/003621_2014-05-23_18-06-08_094959634447_rgbf000101-resize_1-target.png,500,3.9835,1.2192,2470,500,feet,690249,782584,26,Woman
702,811430,DepthScenes,duration_manipulation_targetAtFixation,jsons/af.json,http://34.238.49.31/DepthDuration/v2_depth_duration_MTurk/v2_DepthDuration_HTML.html#17,17,1571,864,1920,1080,9-19-2021,8-12-58,127,depth_duration_stimuli/002323_2014-06-28_20-01-54_260595134347_rgbf000051-resize_4/002323_2014-06-28_20-01-54_260595134347_rgbf000051-resize_4-target.png,500,3.731,1.8288000000000002,2900,499,feet,690249,782584,26,Woman
703,811430,DepthScenes,duration_manipulation_targetAtFixation,jsons/af.json,http://34.238.49.31/DepthDuration/v2_depth_duration_MTurk/v2_DepthDuration_HTML.html#17,17,1571,864,1920,1080,9-19-2021,8-12-58,128,depth_duration_stimuli/002748_2014-06-22_19-07-22_094959634447_rgbf000078-resize_1/002748_2014-06-22_19-07-22_094959634447_rgbf000078-resize_1-target.png,500,4.6705,2.1336,3232,499,feet,690249,782584,26,Woman
710,811430,DepthScenes,duration_manipulation_targetAtFixation,jsons/af.json,http://34.238.49.31/DepthDuration/v2_depth_duration_MTurk/v2_DepthDuration_HTML.html#17,17,1571,864,1920,1080,9-19-2021,8-12-58,135,depth_duration_stimuli/002209_2014-06-28_18-36-10_260595134347_rgbf000051-resize_1/002209_2014-06-28_18-36-10_260595134347_rgbf000051-resize_1-target.png,500,2.057,0.9144000000000001,4005,497,feet,690249,782584,26,Woman
712,811430,DepthScenes,duration_manipulation_targetAtFixation,jsons/af.json,http://34.238.49.31/DepthDuration/v2_depth_duration_MTurk/v2_DepthDuration_HTML.html#17,17,1571,864,1920,1080,9-19-2021,8-12-58,137,depth_duration_stimuli/001449_2014-06-19_17-01-27_260595134347_rgbf000116-resize_2/001449_2014-06-19_17-01-27_260595134347_rgbf000116-resize_2-target.png,500,3.452,1.2192,2504,500,feet,690249,782584,26,Woman
729,811430,DepthScenes,duration_manipulation_targetAtFixation,jsons/af.json,http://34.238.49.31/DepthDuration/v2_depth_duration_MTurk/v2_DepthDuration_HTML.html#17,17,1571,864,1920,1080,9-19-2021,8-12-58,154,depth_duration_stimuli/000734_2014-06-08_17-39-11_260595134347_rgbf000128-resize_2/000734_2014-06-08_17-39-11_260595134347_rgbf000128-resize_2-target.png,500,4.098,1.8288000000000002,2326,501,feet,690249,782584,26,Woman
730,811430,DepthScenes,duration_manipulation_targetAtFixation,jsons/af.json,http://34.238.49.31/DepthDuration/v2_depth_duration_MTurk/v2_DepthDuration_HTML.html#17,17,1571,864,1920,1080,9-19-2021,8-12-58,155,depth_duration_stimuli/000636_2014-06-08_16-39-02_260595134347_rgbf000108-resize_4/000636_2014-06-08_16-39-02_260595134347_rgbf000108-resize_4-target.png,500,2.682,1.2192,2124,496,feet,690249,782584,26,Woman
736,811430,DepthScenes,duration_manipulation_targetAtFixation,jsons/af.json,http://34.238.49.31/DepthDuration/v2_depth_duration_MTurk/v2_DepthDuration_HTML.html#17,17,1571,864,1920,1080,9-19-2021,8-12-58,161,depth_duration_stimuli/002305_2014-06-28_19-56-50_260595134347_rgbf000102-resize_7/002305_2014-06-28_19-56-50_260595134347_rgbf000102-resize_7-target.png,500,4.8725,2.4384,2634,500,feet,690249,782584,26,Woman
737,811430,DepthScenes,duration_manipulation_targetAtFixation,jsons/af.json,http://34.238.49.31/DepthDuration/v2_depth_duration_MTurk/v2_DepthDuration_HTML.html#17,17,1571,864,1920,1080,9-19-2021,8-12-58,162,depth_duration_stimuli/000709_2014-06-08_13-51-55_260595134347_rgbf000068-resize_3/000709_2014-06-08_13-51-55_260595134347_rgbf000068-resize_3-target.png,500,1.803,1.2192,2102,502,feet,690249,782584,26,Woman
746,811430,DepthScenes,duration_manipulation_targetAtFixation,jsons/af.json,http://34.238.49.31/DepthDuration/v2_depth_duration_MTurk/v2_DepthDuration_HTML.html#17,17,1571,864,1920,1080,9-19-2021,8-12-58,171,depth_duration_stimuli/001810_2014-06-26_20-51-35_260595134347_rgbf000040-resize_3/001810_2014-06-26_20-51-35_260595134347_rgbf000040-resize_3-target.png,500,2.2525,1.2192,1815,496,feet,690249,782584,26,Woman
749,811430,DepthScenes,duration_manipulation_targetAtFixation,jsons/af.json,http://34.238.49.31/DepthDuration/v2_depth_duration_MTurk/v2_DepthDuration_HTML.html#17,17,1571,864,1920,1080,9-19-2021,8-12-58,174,depth_duration_stimuli/001724_2014-06-26_19-28-50_260595134347_rgbf000037-resize_7/001724_2014-06-26_19-28-50_260595134347_rgbf000037-resize_7-target.png,500,3.827,2.4384,3364,510,feet,690249,782584,26,Woman
751,811430,DepthScenes,duration_manipulation_targetAtFixation,jsons/af.json,http://34.238.49.31/DepthDuration/v2_depth_duration_MTurk/v2_DepthDuration_HTML.html#17,17,1571,864,1920,1080,9-19-2021,8-12-58,176,depth_duration_stimuli/001828_2014-06-26_21-40-03_260595134347_rgbf000024-resize_0/001828_2014-06-26_21-40-03_260595134347_rgbf000024-resize_0-target.png,500,4.826,1.8288000000000002,2157,499,feet,690249,782584,26,Woman
752,811430,DepthScenes,duration_manipulation_targetAtFixation,jsons/af.json,http://34.238.49.31/DepthDuration/v2_depth_duration_MTurk/v2_DepthDuration_HTML.html#17,17,1571,864,1920,1080,9-19-2021,8-12-58,177,depth_duration_stimuli/001164_2014-06-17_15-35-46_260595134347_rgbf000085-resize_3/001164_2014-06-17_15-35-46_260595134347_rgbf000085-resize_3-target.png,500,2.354,1.524,2052,494,feet,690249,782584,26,Woman
754,811430,DepthScenes,duration_manipulation_targetAtFixation,jsons/af.json,http://34.238.49.31/DepthDuration/v2_depth_duration_MTurk/v2_DepthDuration_HTML.html#17,17,1571,864,1920,1080,9-19-2021,8-12-58,179,depth_duration_stimuli/003495_2014-05-21_16-01-51_094959634447_rgbf000100-resize_3/003495_2014-05-21_16-01-51_094959634447_rgbf000100-resize_3-target.png,500,1.6255,0.6096,2037,495,feet,690249,782584,26,Woman
761,811430,DepthScenes,duration_manipulation_targetAtFixation,jsons/af.json,http://34.238.49.31/DepthDuration/v2_depth_duration_MTurk/v2_DepthDuration_HTML.html#17,17,1571,864,1920,1080,9-19-2021,8-12-58,186,depth_duration_stimuli/001197_2014-06-17_16-01-50_260595134347_rgbf000103-resize_4/001197_2014-06-17_16-01-50_260595134347_rgbf000103-resize_4-target.png,500,3.4025,2.1336,1903,499,feet,690249,782584,26,Woman
764,811430,DepthScenes,duration_manipulation_targetAtFixation,jsons/af.json,http://34.238.49.31/DepthDuration/v2_depth_duration_MTurk/v2_DepthDuration_HTML.html#17,17,1571,864,1920,1080,9-19-2021,8-12-58,189,depth_duration_stimuli/002199_2014-06-28_18-33-56_260595134347_rgbf000074-resize_0/002199_2014-06-28_18-33-56_260595134347_rgbf000074-resize_0-target.png,500,1.996,0.3048,2141,504,feet,690249,782584,26,Woman
765,811430,DepthScenes,duration_manipulation_targetAtFixation,jsons/af.json,http://34.238.49.31/DepthDuration/v2_depth_duration_MTurk/v2_DepthDuration_HTML.html#17,17,1571,864,1920,1080,9-19-2021,8-12-58,190,depth_duration_stimuli/000788_2014-06-08_22-34-36_260595134347_rgbf000131-resize_1/000788_2014-06-08_22-34-36_260595134347_rgbf000131-resize_1-target.png,500,3.359,1.2192,2411,511,feet,690249,782584,26,Woman
773,614349,DepthScenes,duration_manipulation_targetAtFixation,jsons/ah_2.json,http://35.173.220.167/DepthDuration/v2_depth_duration_MTurk/v2_DepthDuration_HTML.html#30,30,1440,757,1440,900,9-5-2021,5-56-48,6,depth_duration_stimuli/000191_2014-05-12_17-07-38_260595134347_rgbf000199-resize_0/000191_2014-05-12_17-07-38_260595134347_rgbf000199-resize_0-target.png,500,3.7995,3.048,3213,506,feet,1021300,1244325,55,Man
774,614349,DepthScenes,duration_manipulation_targetAtFixation,jsons/ah_2.json,http://35.173.220.167/DepthDuration/v2_depth_duration_MTurk/v2_DepthDuration_HTML.html#30,30,1440,757,1440,900,9-5-2021,5-56-48,7,depth_duration_stimuli/000720_2014-06-08_18-37-27_260595134347_rgbf000203-resize_4/000720_2014-06-08_18-37-27_260595134347_rgbf000203-resize_4-target.png,500,1.558,0.9144000000000001,2898,492,feet,1021300,1244325,55,Man
781,614349,DepthScenes,duration_manipulation_targetAtFixation,jsons/ah_2.json,http://35.173.220.167/DepthDuration/v2_depth_duration_MTurk/v2_DepthDuration_HTML.html#30,30,1440,757,1440,900,9-5-2021,5-56-48,14,depth_duration_stimuli/002570_2014-06-24_13-59-54_094959634447_rgbf000059-resize_0/002570_2014-06-24_13-59-54_094959634447_rgbf000059-resize_0-target.png,500,4.037,3.048,2997,486,feet,1021300,1244325,55,Man
784,614349,DepthScenes,duration_manipulation_targetAtFixation,jsons/ah_2.json,http://35.173.220.167/DepthDuration/v2_depth_duration_MTurk/v2_DepthDuration_HTML.html#30,30,1440,757,1440,900,9-5-2021,5-56-48,17,depth_duration_stimuli/003587_2014-05-23_16-48-02_094959634447_rgbf002384-resize_2/003587_2014-05-23_16-48-02_094959634447_rgbf002384-resize_2-target.png,500,1.357,0.9144000000000001,3692,495,feet,1021300,1244325,55,Man
786,614349,DepthScenes,duration_manipulation_targetAtFixation,jsons/ah_2.json,http://35.173.220.167/DepthDuration/v2_depth_duration_MTurk/v2_DepthDuration_HTML.html#30,30,1440,757,1440,900,9-5-2021,5-56-48,19,depth_duration_stimuli/002988_2014-06-15_12-24-20_094959634447_rgbf000150-resize_1/002988_2014-06-15_12-24-20_094959634447_rgbf000150-resize_1-target.png,500,4.767,3.9624,3887,506,feet,1021300,1244325,55,Man
787,614349,DepthScenes,duration_manipulation_targetAtFixation,jsons/ah_2.json,http://35.173.220.167/DepthDuration/v2_depth_duration_MTurk/v2_DepthDuration_HTML.html#30,30,1440,757,1440,900,9-5-2021,5-56-48,20,depth_duration_stimuli/003621_2014-05-23_18-06-08_094959634447_rgbf000101-resize_1/003621_2014-05-23_18-06-08_094959634447_rgbf000101-resize_1-target.png,500,3.9835,4.572,5490,505,feet,1021300,1244325,55,Man
791,614349,DepthScenes,duration_manipulation_targetAtFixation,jsons/ah_2.json,http://35.173.220.167/DepthDuration/v2_depth_duration_MTurk/v2_DepthDuration_HTML.html#30,30,1440,757,1440,900,9-5-2021,5-56-48,24,depth_duration_stimuli/002790_2014-06-22_19-36-35_094959634447_rgbf000074-resize_4/002790_2014-06-22_19-36-35_094959634447_rgbf000074-resize_4-target.png,500,3.512,2.4384,4775,499,feet,1021300,1244325,55,Man
792,614349,DepthScenes,duration_manipulation_targetAtFixation,jsons/ah_2.json,http://35.173.220.167/DepthDuration/v2_depth_duration_MTurk/v2_DepthDuration_HTML.html#30,30,1440,757,1440,900,9-5-2021,5-56-48,25,depth_duration_stimuli/002905_2014-06-03_18-04-43_094959634447_rgbf000151-resize_2/002905_2014-06-03_18-04-43_094959634447_rgbf000151-resize_2-target.png,500,2.0295,1.524,3287,500,feet,1021300,1244325,55,Man
796,614349,DepthScenes,duration_manipulation_targetAtFixation,jsons/ah_2.json,http://35.173.220.167/DepthDuration/v2_depth_duration_MTurk/v2_DepthDuration_HTML.html#30,30,1440,757,1440,900,9-5-2021,5-56-48,29,depth_duration_stimuli/001167_2014-06-17_15-38-07_260595134347_rgbf000108-resize_0/001167_2014-06-17_15-38-07_260595134347_rgbf000108-resize_0-target.png,500,1.8505,0.9144000000000001,4358,503,feet,1021300,1244325,55,Man
800,614349,DepthScenes,duration_manipulation_targetAtFixation,jsons/ah_2.json,http://35.173.220.167/DepthDuration/v2_depth_duration_MTurk/v2_DepthDuration_HTML.html#30,30,1440,757,1440,900,9-5-2021,5-56-48,33,depth_duration_stimuli/003492_2014-05-21_15-50-55_094959634447_rgbf000828-resize_1/003492_2014-05-21_15-50-55_094959634447_rgbf000828-resize_1-target.png,500,4.06875,3.6576000000000004,5087,514,feet,1021300,1244325,55,Man
805,614349,DepthScenes,duration_manipulation_targetAtFixation,jsons/ah_2.json,http://35.173.220.167/DepthDuration/v2_depth_duration_MTurk/v2_DepthDuration_HTML.html#30,30,1440,757,1440,900,9-5-2021,5-56-48,38,depth_duration_stimuli/000929_2014-06-09_16-33-19_260595134347_rgbf000139-resize_0/000929_2014-06-09_16-33-19_260595134347_rgbf000139-resize_0-target.png,500,2.868,1.8288000000000002,4542,484,feet,1021300,1244325,55,Man
818,614349,DepthScenes,duration_manipulation_targetAtFixation,jsons/ah_2.json,http://35.173.220.167/DepthDuration/v2_depth_duration_MTurk/v2_DepthDuration_HTML.html#30,30,1440,757,1440,900,9-5-2021,5-56-48,51,depth_duration_stimuli/002875_2014-06-01_15-19-00_094959634447_rgbf000151-resize_1/002875_2014-06-01_15-19-00_094959634447_rgbf000151-resize_1-target.png,500,1.9675,1.8288000000000002,5922,488,feet,1021300,1244325,55,Man
819,614349,DepthScenes,duration_manipulation_targetAtFixation,jsons/ah_2.json,http://35.173.220.167/DepthDuration/v2_depth_duration_MTurk/v2_DepthDuration_HTML.html#30,30,1440,757,1440,900,9-5-2021,5-56-48,52,depth_duration_stimuli/001029_2014-06-08_13-17-57_260595134347_rgbf000065-resize_1/001029_2014-06-08_13-17-57_260595134347_rgbf000065-resize_1-target.png,500,3.0835,2.7432000000000003,5817,505,feet,1021300,1244325,55,Man
838,614349,DepthScenes,duration_manipulation_targetAtFixation,jsons/ah_2.json,http://35.173.220.167/DepthDuration/v2_depth_duration_MTurk/v2_DepthDuration_HTML.html#30,30,1440,757,1440,900,9-5-2021,5-56-48,71,depth_duration_stimuli/001100_2014-06-15_17-46-26_260595134347_rgbf000225-resize_2/001100_2014-06-15_17-46-26_260595134347_rgbf000225-resize_2-target.png,500,2.24,1.524,4240,492,feet,1021300,1244325,55,Man
842,614349,DepthScenes,duration_manipulation_targetAtFixation,jsons/ah_2.json,http://35.173.220.167/DepthDuration/v2_depth_duration_MTurk/v2_DepthDuration_HTML.html#30,30,1440,757,1440,900,9-5-2021,5-56-48,75,depth_duration_stimuli/000735_2014-06-08_18-23-50_260595134347_rgbf000163-resize_2/000735_2014-06-08_18-23-50_260595134347_rgbf000163-resize_2-target.png,500,4.1695,4.572,4294,488,feet,1021300,1244325,55,Man
846,614349,DepthScenes,duration_manipulation_targetAtFixation,jsons/ah_2.json,http://35.173.220.167/DepthDuration/v2_depth_duration_MTurk/v2_DepthDuration_HTML.html#30,30,1440,757,1440,900,9-5-2021,5-56-48,79,depth_duration_stimuli/002788_2014-06-22_19-36-03_094959634447_rgbf000088-resize_2/002788_2014-06-22_19-36-03_094959634447_rgbf000088-resize_2-target.png,500,1.6465,3.6576000000000004,4364,502,feet,1021300,1244325,55,Man
847,614349,DepthScenes,duration_manipulation_targetAtFixation,jsons/ah_2.json,http://35.173.220.167/DepthDuration/v2_depth_duration_MTurk/v2_DepthDuration_HTML.html#30,30,1440,757,1440,900,9-5-2021,5-56-48,80,depth_duration_stimuli/002805_2014-06-22_19-54-03_094959634447_rgbf000079-resize_1/002805_2014-06-22_19-54-03_094959634447_rgbf000079-resize_1-target.png,500,3.144,5.1816,4297,498,feet,1021300,1244325,55,Man
851,614349,DepthScenes,duration_manipulation_targetAtFixation,jsons/ah_2.json,http://35.173.220.167/DepthDuration/v2_depth_duration_MTurk/v2_DepthDuration_HTML.html#30,30,1440,757,1440,900,9-5-2021,5-56-48,84,depth_duration_stimuli/001199_2014-06-17_16-03-48_260595134347_rgbf000077-resize_0/001199_2014-06-17_16-03-48_260595134347_rgbf000077-resize_0-target.png,500,3.4375,6.096,5497,502,feet,1021300,1244325,55,Man
853,614349,DepthScenes,duration_manipulation_targetAtFixation,jsons/ah_2.json,http://35.173.220.167/DepthDuration/v2_depth_duration_MTurk/v2_DepthDuration_HTML.html#30,30,1440,757,1440,900,9-5-2021,5-56-48,86,depth_duration_stimuli/002964_2014-06-08_17-46-11_094959634447_rgbf000091-resize_4/002964_2014-06-08_17-46-11_094959634447_rgbf000091-resize_4-target.png,500,1.691,0.9144000000000001,4718,505,feet,1021300,1244325,55,Man
854,614349,DepthScenes,duration_manipulation_targetAtFixation,jsons/ah_2.json,http://35.173.220.167/DepthDuration/v2_depth_duration_MTurk/v2_DepthDuration_HTML.html#30,30,1440,757,1440,900,9-5-2021,5-56-48,87,depth_duration_stimuli/003069_2014-06-15_14-57-50_094959634447_rgbf000150-resize_4/003069_2014-06-15_14-57-50_094959634447_rgbf000150-resize_4-target.png,500,4.208,7.62,5825,490,feet,1021300,1244325,55,Man
855,614349,DepthScenes,duration_manipulation_targetAtFixation,jsons/ah_2.json,http://35.173.220.167/DepthDuration/v2_depth_duration_MTurk/v2_DepthDuration_HTML.html#30,30,1440,757,1440,900,9-5-2021,5-56-48,88,depth_duration_stimuli/002103_2014-06-25_20-00-40_260595134347_rgbf000049-resize_0/002103_2014-06-25_20-00-40_260595134347_rgbf000049-resize_0-target.png,500,4.105,7.62,3985,496,feet,1021300,1244325,55,Man
856,614349,DepthScenes,duration_manipulation_targetAtFixation,jsons/ah_2.json,http://35.173.220.167/DepthDuration/v2_depth_duration_MTurk/v2_DepthDuration_HTML.html#30,30,1440,757,1440,900,9-5-2021,5-56-48,89,depth_duration_stimuli/001059_2014-06-08_21-53-27_260595134347_rgbf000061-resize_4/001059_2014-06-08_21-53-27_260595134347_rgbf000061-resize_4-target.png,500,2.4185,2.4384,3746,500,feet,1021300,1244325,55,Man
859,614349,DepthScenes,duration_manipulation_targetAtFixation,jsons/ah_2.json,http://35.173.220.167/DepthDuration/v2_depth_duration_MTurk/v2_DepthDuration_HTML.html#30,30,1440,757,1440,900,9-5-2021,5-56-48,92,depth_duration_stimuli/002340_2014-06-28_20-05-46_260595134347_rgbf000113-resize_0/002340_2014-06-28_20-05-46_260595134347_rgbf000113-resize_0-target.png,500,2.4735,2.4384,3789,491,feet,1021300,1244325,55,Man
865,614349,DepthScenes,duration_manipulation_targetAtFixation,jsons/ah_2.json,http://35.173.220.167/DepthDuration/v2_depth_duration_MTurk/v2_DepthDuration_HTML.html#30,30,1440,757,1440,900,9-5-2021,5-56-48,98,depth_duration_stimuli/000457_2014-06-08_16-52-43_260595134347_rgbf000199-resize_1/000457_2014-06-08_16-52-43_260595134347_rgbf000199-resize_1-target.png,500,3.649,4.572,3736,510,feet,1021300,1244325,55,Man
867,614349,DepthScenes,duration_manipulation_targetAtFixation,jsons/ah_2.json,http://35.173.220.167/DepthDuration/v2_depth_duration_MTurk/v2_DepthDuration_HTML.html#30,30,1440,757,1440,900,9-5-2021,5-56-48,100,depth_duration_stimuli/003546_2014-05-22_15-48-53_094959634447_rgbf004816-resize_3/003546_2014-05-22_15-48-53_094959634447_rgbf004816-resize_3-target.png,500,2.62625,3.6576000000000004,4524,465,feet,1021300,1244325,55,Man
873,614349,DepthScenes,duration_manipulation_targetAtFixation,jsons/ah_2.json,http://35.173.220.167/DepthDuration/v2_depth_duration_MTurk/v2_DepthDuration_HTML.html#30,30,1440,757,1440,900,9-5-2021,5-56-48,106,depth_duration_stimuli/000943_2014-06-09_19-31-07_260595134347_rgbf000128-resize_1/000943_2014-06-09_19-31-07_260595134347_rgbf000128-resize_1-target.png,500,1.9765,2.1336,3827,505,feet,1021300,1244325,55,Man
876,614349,DepthScenes,duration_manipulation_targetAtFixation,jsons/ah_2.json,http://35.173.220.167/DepthDuration/v2_depth_duration_MTurk/v2_DepthDuration_HTML.html#30,30,1440,757,1440,900,9-5-2021,5-56-48,109,depth_duration_stimuli/000709_2014-06-08_13-51-55_260595134347_rgbf000068-resize_3/000709_2014-06-08_13-51-55_260595134347_rgbf000068-resize_3-target.png,500,1.803,4.572,4041,500,feet,1021300,1244325,55,Man
887,614349,DepthScenes,duration_manipulation_targetAtFixation,jsons/ah_2.json,http://35.173.220.167/DepthDuration/v2_depth_duration_MTurk/v2_DepthDuration_HTML.html#30,30,1440,757,1440,900,9-5-2021,5-56-48,120,depth_duration_stimuli/000677_2014-06-08_23-10-32_260595134347_rgbf000158-resize_6/000677_2014-06-08_23-10-32_260595134347_rgbf000158-resize_6-target.png,500,3.556,3.6576000000000004,6099,500,feet,1021300,1244325,55,Man
891,614349,DepthScenes,duration_manipulation_targetAtFixation,jsons/ah_2.json,http://35.173.220.167/DepthDuration/v2_depth_duration_MTurk/v2_DepthDuration_HTML.html#30,30,1440,757,1440,900,9-5-2021,5-56-48,124,depth_duration_stimuli/000636_2014-06-08_16-39-02_260595134347_rgbf000108-resize_4/000636_2014-06-08_16-39-02_260595134347_rgbf000108-resize_4-target.png,500,2.682,3.048,6672,514,feet,1021300,1244325,55,Man
895,614349,DepthScenes,duration_manipulation_targetAtFixation,jsons/ah_2.json,http://35.173.220.167/DepthDuration/v2_depth_duration_MTurk/v2_DepthDuration_HTML.html#30,30,1440,757,1440,900,9-5-2021,5-56-48,128,depth_duration_stimuli/002414_2014-06-28_20-24-58_260595134347_rgbf000067-resize_4/002414_2014-06-28_20-24-58_260595134347_rgbf000067-resize_4-target.png,500,4.363,4.572,4566,489,feet,1021300,1244325,55,Man
902,614349,DepthScenes,duration_manipulation_targetAtFixation,jsons/ah_2.json,http://35.173.220.167/DepthDuration/v2_depth_duration_MTurk/v2_DepthDuration_HTML.html#30,30,1440,757,1440,900,9-5-2021,5-56-48,135,depth_duration_stimuli/001570_2014-06-20_17-21-09_260595134347_rgbf000135-resize_4/001570_2014-06-20_17-21-09_260595134347_rgbf000135-resize_4-target.png,500,4.467,4.572,5031,507,feet,1021300,1244325,55,Man
904,614349,DepthScenes,duration_manipulation_targetAtFixation,jsons/ah_2.json,http://35.173.220.167/DepthDuration/v2_depth_duration_MTurk/v2_DepthDuration_HTML.html#30,30,1440,757,1440,900,9-5-2021,5-56-48,137,depth_duration_stimuli/000800_2014-06-08_22-42-09_260595134347_rgbf000095-resize_3/000800_2014-06-08_22-42-09_260595134347_rgbf000095-resize_3-target.png,500,2.8,3.6576000000000004,4669,495,feet,1021300,1244325,55,Man
907,614349,DepthScenes,duration_manipulation_targetAtFixation,jsons/ah_2.json,http://35.173.220.167/DepthDuration/v2_depth_duration_MTurk/v2_DepthDuration_HTML.html#30,30,1440,757,1440,900,9-5-2021,5-56-48,140,depth_duration_stimuli/002272_2014-06-28_18-53-56_260595134347_rgbf000067-resize_2/002272_2014-06-28_18-53-56_260595134347_rgbf000067-resize_2-target.png,500,1.138,1.524,4709,502,feet,1021300,1244325,55,Man
908,614349,DepthScenes,duration_manipulation_targetAtFixation,jsons/ah_2.json,http://35.173.220.167/DepthDuration/v2_depth_duration_MTurk/v2_DepthDuration_HTML.html#30,30,1440,757,1440,900,9-5-2021,5-56-48,141,depth_duration_stimuli/002568_2014-06-24_13-59-21_094959634447_rgbf000062-resize_4/002568_2014-06-24_13-59-21_094959634447_rgbf000062-resize_4-target.png,500,3.015,2.4384,4849,510,feet,1021300,1244325,55,Man
913,614349,DepthScenes,duration_manipulation_targetAtFixation,jsons/ah_2.json,http://35.173.220.167/DepthDuration/v2_depth_duration_MTurk/v2_DepthDuration_HTML.html#30,30,1440,757,1440,900,9-5-2021,5-56-48,146,depth_duration_stimuli/000788_2014-06-08_22-34-36_260595134347_rgbf000131-resize_1/000788_2014-06-08_22-34-36_260595134347_rgbf000131-resize_1-target.png,500,3.359,3.048,4770,495,feet,1021300,1244325,55,Man
914,614349,DepthScenes,duration_manipulation_targetAtFixation,jsons/ah_2.json,http://35.173.220.167/DepthDuration/v2_depth_duration_MTurk/v2_DepthDuration_HTML.html#30,30,1440,757,1440,900,9-5-2021,5-56-48,147,depth_duration_stimuli/002995_2014-06-15_12-31-26_094959634447_rgbf000150-resize_1/002995_2014-06-15_12-31-26_094959634447_rgbf000150-resize_1-target.png,500,3.836,4.572,6049,507,feet,1021300,1244325,55,Man
917,614349,DepthScenes,duration_manipulation_targetAtFixation,jsons/ah_2.json,http://35.173.220.167/DepthDuration/v2_depth_duration_MTurk/v2_DepthDuration_HTML.html#30,30,1440,757,1440,900,9-5-2021,5-56-48,150,depth_duration_stimuli/002725_2014-06-22_11-47-51_094959634447_rgbf000070-resize_1/002725_2014-06-22_11-47-51_094959634447_rgbf000070-resize_1-target.png,500,2.195,4.572,5872,500,feet,1021300,1244325,55,Man
918,614349,DepthScenes,duration_manipulation_targetAtFixation,jsons/ah_2.json,http://35.173.220.167/DepthDuration/v2_depth_duration_MTurk/v2_DepthDuration_HTML.html#30,30,1440,757,1440,900,9-5-2021,5-56-48,151,depth_duration_stimuli/000773_2014-06-08_22-24-54_260595134347_rgbf000093-resize_1/000773_2014-06-08_22-24-54_260595134347_rgbf000093-resize_1-target.png,500,4.973,4.572,4592,496,feet,1021300,1244325,55,Man
924,614349,DepthScenes,duration_manipulation_targetAtFixation,jsons/ah_2.json,http://35.173.220.167/DepthDuration/v2_depth_duration_MTurk/v2_DepthDuration_HTML.html#30,30,1440,757,1440,900,9-5-2021,5-56-48,157,depth_duration_stimuli/000742_2014-06-08_18-48-09_260595134347_rgbf000164-resize_4/000742_2014-06-08_18-48-09_260595134347_rgbf000164-resize_4-target.png,500,4.632,7.62,3413,503,feet,1021300,1244325,55,Man
925,614349,DepthScenes,duration_manipulation_targetAtFixation,jsons/ah_2.json,http://35.173.220.167/DepthDuration/v2_depth_duration_MTurk/v2_DepthDuration_HTML.html#30,30,1440,757,1440,900,9-5-2021,5-56-48,158,depth_duration_stimuli/002750_2014-06-22_19-08-03_094959634447_rgbf000094-resize_4/002750_2014-06-22_19-08-03_094959634447_rgbf000094-resize_4-target.png,500,2.354,3.6576000000000004,4178,505,feet,1021300,1244325,55,Man
932,614349,DepthScenes,duration_manipulation_targetAtFixation,jsons/ah_2.json,http://35.173.220.167/DepthDuration/v2_depth_duration_MTurk/v2_DepthDuration_HTML.html#30,30,1440,757,1440,900,9-5-2021,5-56-48,165,depth_duration_stimuli/001175_2014-06-17_15-45-55_260595134347_rgbf000129-resize_4/001175_2014-06-17_15-45-55_260595134347_rgbf000129-resize_4-target.png,500,4.255,6.096,5577,498,feet,1021300,1244325,55,Man
940,614349,DepthScenes,duration_manipulation_targetAtFixation,jsons/ah_2.json,http://35.173.220.167/DepthDuration/v2_depth_duration_MTurk/v2_DepthDuration_HTML.html#30,30,1440,757,1440,900,9-5-2021,5-56-48,173,depth_duration_stimuli/002545_2014-06-24_13-38-53_094959634447_rgbf000080-resize_4/002545_2014-06-24_13-38-53_094959634447_rgbf000080-resize_4-target.png,500,1.9205,2.4384,2939,503,feet,1021300,1244325,55,Man
941,614349,DepthScenes,duration_manipulation_targetAtFixation,jsons/ah_2.json,http://35.173.220.167/DepthDuration/v2_depth_duration_MTurk/v2_DepthDuration_HTML.html#30,30,1440,757,1440,900,9-5-2021,5-56-48,174,depth_duration_stimuli/003070_2014-06-15_14-58-27_094959634447_rgbf000150-resize_3/003070_2014-06-15_14-58-27_094959634447_rgbf000150-resize_3-target.png,500,2.9415,2.4384,3161,506,feet,1021300,1244325,55,Man
950,614349,DepthScenes,duration_manipulation_targetAtFixation,jsons/ah_2.json,http://35.173.220.167/DepthDuration/v2_depth_duration_MTurk/v2_DepthDuration_HTML.html#30,30,1440,757,1440,900,9-5-2021,5-56-48,183,depth_duration_stimuli/002949_2014-06-26_15-57-42_094959634447_rgbf000079-resize_1/002949_2014-06-26_15-57-42_094959634447_rgbf000079-resize_1-target.png,500,1.8915,1.8288000000000002,4054,490,feet,1021300,1244325,55,Man
953,614349,DepthScenes,duration_manipulation_targetAtFixation,jsons/ah_2.json,http://35.173.220.167/DepthDuration/v2_depth_duration_MTurk/v2_DepthDuration_HTML.html#30,30,1440,757,1440,900,9-5-2021,5-56-48,186,depth_duration_stimuli/000469_2014-06-09_19-42-10_260595134347_rgbf000081-resize_1/000469_2014-06-09_19-42-10_260595134347_rgbf000081-resize_1-target.png,500,1.652,1.2192,6407,492,feet,1021300,1244325,55,Man
1158,736376,DepthScenes,duration_manipulation_targetAtFixation,jsons/r.json,http://35.173.220.167/DepthDuration/v2_depth_duration_MTurk/v2_DepthDuration_HTML.html#64,64,1091,500,1364,768,9/6/21,7-53-28,7,depth_duration_stimuli/000457_2014-06-08_16-52-43_260595134347_rgbf000199-resize_1/000457_2014-06-08_16-52-43_260595134347_rgbf000199-resize_1-target.png,500,3.649,1.0,4486,498,meters,1308456,1375060,30,Man
1163,736376,DepthScenes,duration_manipulation_targetAtFixation,jsons/r.json,http://35.173.220.167/DepthDuration/v2_depth_duration_MTurk/v2_DepthDuration_HTML.html#64,64,1091,500,1364,768,9/6/21,7-53-28,12,depth_duration_stimuli/002464_2014-06-28_20-36-57_260595134347_rgbf000029-resize_0/002464_2014-06-28_20-36-57_260595134347_rgbf000029-resize_0-target.png,500,3.9525,1.0,3257,502,meters,1308456,1375060,30,Man
1175,736376,DepthScenes,duration_manipulation_targetAtFixation,jsons/r.json,http://35.173.220.167/DepthDuration/v2_depth_duration_MTurk/v2_DepthDuration_HTML.html#64,64,1091,500,1364,768,9/6/21,7-53-28,24,depth_duration_stimuli/000866_2014-06-09_20-45-42_260595134347_rgbf000139-resize_1/000866_2014-06-09_20-45-42_260595134347_rgbf000139-resize_1-target.png,500,3.2155,1.0,4656,545,meters,1308456,1375060,30,Man
1176,736376,DepthScenes,duration_manipulation_targetAtFixation,jsons/r.json,http://35.173.220.167/DepthDuration/v2_depth_duration_MTurk/v2_DepthDuration_HTML.html#64,64,1091,500,1364,768,9/6/21,7-53-28,25,depth_duration_stimuli/002279_2014-06-28_18-55-32_260595134347_rgbf000040-resize_5/002279_2014-06-28_18-55-32_260595134347_rgbf000040-resize_5-target.png,500,1.504333333,5.0,5699,498,meters,1308456,1375060,30,Man
1178,736376,DepthScenes,duration_manipulation_targetAtFixation,jsons/r.json,http://35.173.220.167/DepthDuration/v2_depth_duration_MTurk/v2_DepthDuration_HTML.html#64,64,1091,500,1364,768,9/6/21,7-53-28,27,depth_duration_stimuli/002600_2014-06-24_14-27-04_094959634447_rgbf000074-resize_2/002600_2014-06-24_14-27-04_094959634447_rgbf000074-resize_2-target.png,500,2.7575,2.0,3313,500,meters,1308456,1375060,30,Man
