,subjID,experimentName,versionName,sequenceName,url,selected_row,windowWidth,windowHeight,screenWidth,screenHeight,startDate,startTime,trial,stimulus,duration,actual_depth,depth_estimate,trial_RT,log_sceneDuration,unitSelection,experimentTime,totalTime,age,gender
2,710814,DepthScenes,duration_manipulation_targetAtFixation,jsons/ad_3.json,http://100.27.21.195/DepthDuration/v2_depth_duration_MTurk/v2_DepthDuration_HTML.html#8,8,1600,789,1600,900,9-11-2021,14-50-23,3,depth_duration_stimuli/002949_2014-06-26_15-57-42_094959634447_rgbf000079-resize_1/002949_2014-06-26_15-57-42_094959634447_rgbf000079-resize_1-target.png,750,1.8915,0.9144000000000001,2163,749,feet,750381,902117,44,Man
4,710814,DepthScenes,duration_manipulation_targetAtFixation,jsons/ad_3.json,http://100.27.21.195/DepthDuration/v2_depth_duration_MTurk/v2_DepthDuration_HTML.html#8,8,1600,789,1600,900,9-11-2021,14-50-23,5,depth_duration_stimuli/003081_2014-06-15_15-19-16_094959634447_rgbf000150-resize_1/003081_2014-06-15_15-19-16_094959634447_rgbf000150-resize_1-target.png,750,3.9125,1.8288000000000002,3163,749,feet,750381,902117,44,Man
7,710814,DepthScenes,duration_manipulation_targetAtFixation,jsons/ad_3.json,http://100.27.21.195/DepthDuration/v2_depth_duration_MTurk/v2_DepthDuration_HTML.html#8,8,1600,789,1600,900,9-11-2021,14-50-23,8,depth_duration_stimuli/000749_2014-06-08_21-55-06_260595134347_rgbf000070-resize_2/000749_2014-06-08_21-55-06_260595134347_rgbf000070-resize_2-target.png,750,2.331,1.524,2179,750,feet,750381,902117,44,Man
9,710814,DepthScenes,duration_manipulation_targetAtFixation,jsons/ad_3.json,http://100.27.21.195/DepthDuration/v2_depth_duration_MTurk/v2_DepthDuration_HTML.html#8,8,1600,789,1600,900,9-11-2021,14-50-23,10,depth_duration_stimuli/001092_2014-06-15_17-34-58_260595134347_rgbf000171-resize_3/001092_2014-06-15_17-34-58_260595134347_rgbf000171-resize_3-target.png,750,2.6935,1.524,3209,749,feet,750381,902117,44,Man
12,710814,DepthScenes,duration_manipulation_targetAtFixation,jsons/ad_3.json,http://100.27.21.195/DepthDuration/v2_depth_duration_MTurk/v2_DepthDuration_HTML.html#8,8,1600,789,1600,900,9-11-2021,14-50-23,13,depth_duration_stimuli/001584_2014-06-20_11-07-43_260595134347_rgbf000002-resize_1/001584_2014-06-20_11-07-43_260595134347_rgbf000002-resize_1-target.png,750,3.53,1.2192,2795,750,feet,750381,902117,44,Man
13,710814,DepthScenes,duration_manipulation_targetAtFixation,jsons/ad_3.json,http://100.27.21.195/DepthDuration/v2_depth_duration_MTurk/v2_DepthDuration_HTML.html#8,8,1600,789,1600,900,9-11-2021,14-50-23,14,depth_duration_stimuli/003048_2014-06-15_13-49-43_094959634447_rgbf000150-resize_1/003048_2014-06-15_13-49-43_094959634447_rgbf000150-resize_1-target.png,750,4.0035,1.2192,3162,751,feet,750381,902117,44,Man
20,710814,DepthScenes,duration_manipulation_targetAtFixation,jsons/ad_3.json,http://100.27.21.195/DepthDuration/v2_depth_duration_MTurk/v2_DepthDuration_HTML.html#8,8,1600,789,1600,900,9-11-2021,14-50-23,21,depth_duration_stimuli/002039_2014-06-24_20-22-38_260595134347_rgbf000084-resize_1/002039_2014-06-24_20-22-38_260595134347_rgbf000084-resize_1-target.png,750,4.408,2.7432000000000003,2859,749,feet,750381,902117,44,Man
27,710814,DepthScenes,duration_manipulation_targetAtFixation,jsons/ad_3.json,http://100.27.21.195/DepthDuration/v2_depth_duration_MTurk/v2_DepthDuration_HTML.html#8,8,1600,789,1600,900,9-11-2021,14-50-23,28,depth_duration_stimuli/003228_2014-05-14_13-42-35_094959634447_rgbf000101-resize_1/003228_2014-05-14_13-42-35_094959634447_rgbf000101-resize_1-target.png,750,1.968,0.9144000000000001,2883,750,feet,750381,902117,44,Man
28,710814,DepthScenes,duration_manipulation_targetAtFixation,jsons/ad_3.json,http://100.27.21.195/DepthDuration/v2_depth_duration_MTurk/v2_DepthDuration_HTML.html#8,8,1600,789,1600,900,9-11-2021,14-50-23,29,depth_duration_stimuli/002445_2014-06-28_20-32-16_260595134347_rgbf000029-resize_4/002445_2014-06-28_20-32-16_260595134347_rgbf000029-resize_4-target.png,750,2.5315,1.2192,3362,751,feet,750381,902117,44,Man
39,710814,DepthScenes,duration_manipulation_targetAtFixation,jsons/ad_3.json,http://100.27.21.195/DepthDuration/v2_depth_duration_MTurk/v2_DepthDuration_HTML.html#8,8,1600,789,1600,900,9-11-2021,14-50-23,40,depth_duration_stimuli/002305_2014-06-28_19-56-50_260595134347_rgbf000102-resize_7/002305_2014-06-28_19-56-50_260595134347_rgbf000102-resize_7-target.png,750,4.8725,1.524,3306,749,feet,750381,902117,44,Man
45,710814,DepthScenes,duration_manipulation_targetAtFixation,jsons/ad_3.json,http://100.27.21.195/DepthDuration/v2_depth_duration_MTurk/v2_DepthDuration_HTML.html#8,8,1600,789,1600,900,9-11-2021,14-50-23,46,depth_duration_stimuli/002279_2014-06-28_18-55-32_260595134347_rgbf000040-resize_5/002279_2014-06-28_18-55-32_260595134347_rgbf000040-resize_5-target.png,750,1.5043333333333,0.6096,3330,750,feet,750381,902117,44,Man
46,710814,DepthScenes,duration_manipulation_targetAtFixation,jsons/ad_3.json,http://100.27.21.195/DepthDuration/v2_depth_duration_MTurk/v2_DepthDuration_HTML.html#8,8,1600,789,1600,900,9-11-2021,14-50-23,47,depth_duration_stimuli/001132_2014-06-17_14-48-54_260595134347_rgbf000100-resize_2/001132_2014-06-17_14-48-54_260595134347_rgbf000100-resize_2-target.png,750,3.753,1.524,2308,750,feet,750381,902117,44,Man
54,710814,DepthScenes,duration_manipulation_targetAtFixation,jsons/ad_3.json,http://100.27.21.195/DepthDuration/v2_depth_duration_MTurk/v2_DepthDuration_HTML.html#8,8,1600,789,1600,900,9-11-2021,14-50-23,55,depth_duration_stimuli/002784_2014-06-22_19-26-30_094959634447_rgbf000083-resize_3/002784_2014-06-22_19-26-30_094959634447_rgbf000083-resize_3-target.png,750,1.8046666666667,0.9144000000000001,2402,751,feet,750381,902117,44,Man
56,710814,DepthScenes,duration_manipulation_targetAtFixation,jsons/ad_3.json,http://100.27.21.195/DepthDuration/v2_depth_duration_MTurk/v2_DepthDuration_HTML.html#8,8,1600,789,1600,900,9-11-2021,14-50-23,57,depth_duration_stimuli/002057_2014-06-24_21-00-13_260595134347_rgbf000120-resize_1/002057_2014-06-24_21-00-13_260595134347_rgbf000120-resize_1-target.png,750,2.967,2.7432000000000003,3188,750,feet,750381,902117,44,Man
57,710814,DepthScenes,duration_manipulation_targetAtFixation,jsons/ad_3.json,http://100.27.21.195/DepthDuration/v2_depth_duration_MTurk/v2_DepthDuration_HTML.html#8,8,1600,789,1600,900,9-11-2021,14-50-23,58,depth_duration_stimuli/000436_2014-06-09_22-25-11_260595134347_rgbf000137-resize_1/000436_2014-06-09_22-25-11_260595134347_rgbf000137-resize_1-target.png,750,4.0705,2.7432000000000003,3058,750,feet,750381,902117,44,Man
62,710814,DepthScenes,duration_manipulation_targetAtFixation,jsons/ad_3.json,http://100.27.21.195/DepthDuration/v2_depth_duration_MTurk/v2_DepthDuration_HTML.html#8,8,1600,789,1600,900,9-11-2021,14-50-23,63,depth_duration_stimuli/000470_2014-06-09_19-42-40_260595134347_rgbf000094-resize_1/000470_2014-06-09_19-42-40_260595134347_rgbf000094-resize_1-target.png,750,1.831,1.2192,2152,749,feet,750381,902117,44,Man
64,710814,DepthScenes,duration_manipulation_targetAtFixation,jsons/ad_3.json,http://100.27.21.195/DepthDuration/v2_depth_duration_MTurk/v2_DepthDuration_HTML.html#8,8,1600,789,1600,900,9-11-2021,14-50-23,65,depth_duration_stimuli/003069_2014-06-15_14-57-50_094959634447_rgbf000150-resize_4/003069_2014-06-15_14-57-50_094959634447_rgbf000150-resize_4-target.png,750,4.208,2.7432000000000003,2667,750,feet,750381,902117,44,Man
67,710814,DepthScenes,duration_manipulation_targetAtFixation,jsons/ad_3.json,http://100.27.21.195/DepthDuration/v2_depth_duration_MTurk/v2_DepthDuration_HTML.html#8,8,1600,789,1600,900,9-11-2021,14-50-23,68,depth_duration_stimuli/001417_2014-06-19_16-25-36_260595134347_rgbf000115-resize_5/001417_2014-06-19_16-25-36_260595134347_rgbf000115-resize_5-target.png,750,4.6255,2.7432000000000003,3090,749,feet,750381,902117,44,Man
73,710814,DepthScenes,duration_manipulation_targetAtFixation,jsons/ad_3.json,http://100.27.21.195/DepthDuration/v2_depth_duration_MTurk/v2_DepthDuration_HTML.html#8,8,1600,789,1600,900,9-11-2021,14-50-23,74,depth_duration_stimuli/002805_2014-06-22_19-54-03_094959634447_rgbf000079-resize_1/002805_2014-06-22_19-54-03_094959634447_rgbf000079-resize_1-target.png,750,3.144,1.8288000000000002,2324,751,feet,750381,902117,44,Man
74,710814,DepthScenes,duration_manipulation_targetAtFixation,jsons/ad_3.json,http://100.27.21.195/DepthDuration/v2_depth_duration_MTurk/v2_DepthDuration_HTML.html#8,8,1600,789,1600,900,9-11-2021,14-50-23,75,depth_duration_stimuli/001199_2014-06-17_16-03-48_260595134347_rgbf000077-resize_0/001199_2014-06-17_16-03-48_260595134347_rgbf000077-resize_0-target.png,750,3.4375,2.1336,2883,752,feet,750381,902117,44,Man
83,710814,DepthScenes,duration_manipulation_targetAtFixation,jsons/ad_3.json,http://100.27.21.195/DepthDuration/v2_depth_duration_MTurk/v2_DepthDuration_HTML.html#8,8,1600,789,1600,900,9-11-2021,14-50-23,84,depth_duration_stimuli/001188_2014-06-17_15-54-10_260595134347_rgbf000090-resize_2/001188_2014-06-17_15-54-10_260595134347_rgbf000090-resize_2-target.png,750,2.744,1.2192,2643,750,feet,750381,902117,44,Man
86,710814,DepthScenes,duration_manipulation_targetAtFixation,jsons/ad_3.json,http://100.27.21.195/DepthDuration/v2_depth_duration_MTurk/v2_DepthDuration_HTML.html#8,8,1600,789,1600,900,9-11-2021,14-50-23,87,depth_duration_stimuli/002790_2014-06-22_19-36-35_094959634447_rgbf000074-resize_4/002790_2014-06-22_19-36-35_094959634447_rgbf000074-resize_4-target.png,750,3.512,2.1336,2395,750,feet,750381,902117,44,Man
87,710814,DepthScenes,duration_manipulation_targetAtFixation,jsons/ad_3.json,http://100.27.21.195/DepthDuration/v2_depth_duration_MTurk/v2_DepthDuration_HTML.html#8,8,1600,789,1600,900,9-11-2021,14-50-23,88,depth_duration_stimuli/001059_2014-06-08_21-53-27_260595134347_rgbf000061-resize_4/001059_2014-06-08_21-53-27_260595134347_rgbf000061-resize_4-target.png,750,2.4185,2.4384,2844,750,feet,750381,902117,44,Man
91,710814,DepthScenes,duration_manipulation_targetAtFixation,jsons/ad_3.json,http://100.27.21.195/DepthDuration/v2_depth_duration_MTurk/v2_DepthDuration_HTML.html#8,8,1600,789,1600,900,9-11-2021,14-50-23,92,depth_duration_stimuli/001650_2014-06-20_12-09-00_260595134347_rgbf000087-resize_3/001650_2014-06-20_12-09-00_260595134347_rgbf000087-resize_3-target.png,750,1.9505,1.2192,2290,750,feet,750381,902117,44,Man
97,710814,DepthScenes,duration_manipulation_targetAtFixation,jsons/ad_3.json,http://100.27.21.195/DepthDuration/v2_depth_duration_MTurk/v2_DepthDuration_HTML.html#8,8,1600,789,1600,900,9-11-2021,14-50-23,98,depth_duration_stimuli/001100_2014-06-15_17-46-26_260595134347_rgbf000225-resize_2/001100_2014-06-15_17-46-26_260595134347_rgbf000225-resize_2-target.png,750,2.24,0.9144000000000001,2019,749,feet,750381,902117,44,Man
99,710814,DepthScenes,duration_manipulation_targetAtFixation,jsons/ad_3.json,http://100.27.21.195/DepthDuration/v2_depth_duration_MTurk/v2_DepthDuration_HTML.html#8,8,1600,789,1600,900,9-11-2021,14-50-23,100,depth_duration_stimuli/001447_2014-06-19_17-00-32_260595134347_rgbf000082-resize_5/001447_2014-06-19_17-00-32_260595134347_rgbf000082-resize_5-target.png,750,4.13775,2.1336,2811,749,feet,750381,902117,44,Man
100,710814,DepthScenes,duration_manipulation_targetAtFixation,jsons/ad_3.json,http://100.27.21.195/DepthDuration/v2_depth_duration_MTurk/v2_DepthDuration_HTML.html#8,8,1600,789,1600,900,9-11-2021,14-50-23,101,depth_duration_stimuli/002272_2014-06-28_18-53-56_260595134347_rgbf000067-resize_2/002272_2014-06-28_18-53-56_260595134347_rgbf000067-resize_2-target.png,750,1.138,0.6096,2580,750,feet,750381,902117,44,Man
101,710814,DepthScenes,duration_manipulation_targetAtFixation,jsons/ad_3.json,http://100.27.21.195/DepthDuration/v2_depth_duration_MTurk/v2_DepthDuration_HTML.html#8,8,1600,789,1600,900,9-11-2021,14-50-23,102,depth_duration_stimuli/000521_2014-06-08_13-34-35_260595134347_rgbf000191-resize_2/000521_2014-06-08_13-34-35_260595134347_rgbf000191-resize_2-target.png,750,3.0385,0.6096,2547,751,feet,750381,902117,44,Man
103,710814,DepthScenes,duration_manipulation_targetAtFixation,jsons/ad_3.json,http://100.27.21.195/DepthDuration/v2_depth_duration_MTurk/v2_DepthDuration_HTML.html#8,8,1600,789,1600,900,9-11-2021,14-50-23,104,depth_duration_stimuli/000103_2014-05-14_22-01-17_260595134347_rgbf000152-resize_5/000103_2014-05-14_22-01-17_260595134347_rgbf000152-resize_5-target.png,750,1.993,2.1336,2195,750,feet,750381,902117,44,Man
108,710814,DepthScenes,duration_manipulation_targetAtFixation,jsons/ad_3.json,http://100.27.21.195/DepthDuration/v2_depth_duration_MTurk/v2_DepthDuration_HTML.html#8,8,1600,789,1600,900,9-11-2021,14-50-23,109,depth_duration_stimuli/001150_2014-06-17_15-27-34_260595134347_rgbf000108-resize_2/001150_2014-06-17_15-27-34_260595134347_rgbf000108-resize_2-target.png,750,4.0325,1.8288000000000002,2586,750,feet,750381,902117,44,Man
115,710814,DepthScenes,duration_manipulation_targetAtFixation,jsons/ad_3.json,http://100.27.21.195/DepthDuration/v2_depth_duration_MTurk/v2_DepthDuration_HTML.html#8,8,1600,789,1600,900,9-11-2021,14-50-23,116,depth_duration_stimuli/002153_2014-06-25_21-27-18_260595134347_rgbf000038-resize_5/002153_2014-06-25_21-27-18_260595134347_rgbf000038-resize_5-target.png,750,2.505,1.8288000000000002,2530,750,feet,750381,902117,44,Man
118,710814,DepthScenes,duration_manipulation_targetAtFixation,jsons/ad_3.json,http://100.27.21.195/DepthDuration/v2_depth_duration_MTurk/v2_DepthDuration_HTML.html#8,8,1600,789,1600,900,9-11-2021,14-50-23,119,depth_duration_stimuli/000457_2014-06-08_16-52-43_260595134347_rgbf000199-resize_1/000457_2014-06-08_16-52-43_260595134347_rgbf000199-resize_1-target.png,750,3.649,1.2192,2170,751,feet,750381,902117,44,Man
125,710814,DepthScenes,duration_manipulation_targetAtFixation,jsons/ad_3.json,http://100.27.21.195/DepthDuration/v2_depth_duration_MTurk/v2_DepthDuration_HTML.html#8,8,1600,789,1600,900,9-11-2021,14-50-23,126,depth_duration_stimuli/002344_2014-06-28_20-06-29_260595134347_rgbf000030-resize_1/002344_2014-06-28_20-06-29_260595134347_rgbf000030-resize_1-target.png,750,1.5795,0.6096,2250,749,feet,750381,902117,44,Man
126,710814,DepthScenes,duration_manipulation_targetAtFixation,jsons/ad_3.json,http://100.27.21.195/DepthDuration/v2_depth_duration_MTurk/v2_DepthDuration_HTML.html#8,8,1600,789,1600,900,9-11-2021,14-50-23,127,depth_duration_stimuli/002467_2014-06-28_20-38-07_260595134347_rgbf000026-resize_2/002467_2014-06-28_20-38-07_260595134347_rgbf000026-resize_2-target.png,750,4.742,0.9144000000000001,2323,751,feet,750381,902117,44,Man
130,710814,DepthScenes,duration_manipulation_targetAtFixation,jsons/ad_3.json,http://100.27.21.195/DepthDuration/v2_depth_duration_MTurk/v2_DepthDuration_HTML.html#8,8,1600,789,1600,900,9-11-2021,14-50-23,131,depth_duration_stimuli/001029_2014-06-08_13-17-57_260595134347_rgbf000065-resize_1/001029_2014-06-08_13-17-57_260595134347_rgbf000065-resize_1-target.png,750,3.0835,0.6096,3106,749,feet,750381,902117,44,Man
141,710814,DepthScenes,duration_manipulation_targetAtFixation,jsons/ad_3.json,http://100.27.21.195/DepthDuration/v2_depth_duration_MTurk/v2_DepthDuration_HTML.html#8,8,1600,789,1600,900,9-11-2021,14-50-23,142,depth_duration_stimuli/002678_2014-06-13_16-15-32_094959634447_rgbf000151-resize_6/002678_2014-06-13_16-15-32_094959634447_rgbf000151-resize_6-target.png,750,2.183,2.7432000000000003,2686,749,feet,750381,902117,44,Man
154,710814,DepthScenes,duration_manipulation_targetAtFixation,jsons/ad_3.json,http://100.27.21.195/DepthDuration/v2_depth_duration_MTurk/v2_DepthDuration_HTML.html#8,8,1600,789,1600,900,9-11-2021,14-50-23,155,depth_duration_stimuli/000810_2014-06-08_17-20-01_260595134347_rgbf000105-resize_0/000810_2014-06-08_17-20-01_260595134347_rgbf000105-resize_0-target.png,750,1.4865,0.9144000000000001,2759,749,feet,750381,902117,44,Man
157,710814,DepthScenes,duration_manipulation_targetAtFixation,jsons/ad_3.json,http://100.27.21.195/DepthDuration/v2_depth_duration_MTurk/v2_DepthDuration_HTML.html#8,8,1600,789,1600,900,9-11-2021,14-50-23,158,depth_duration_stimuli/001235_2014-06-17_16-37-36_260595134347_rgbf000084-resize_4/001235_2014-06-17_16-37-36_260595134347_rgbf000084-resize_4-target.png,750,3.6605,1.524,2468,750,feet,750381,902117,44,Man
163,710814,DepthScenes,duration_manipulation_targetAtFixation,jsons/ad_3.json,http://100.27.21.195/DepthDuration/v2_depth_duration_MTurk/v2_DepthDuration_HTML.html#8,8,1600,789,1600,900,9-11-2021,14-50-23,164,depth_duration_stimuli/000929_2014-06-09_16-33-19_260595134347_rgbf000139-resize_0/000929_2014-06-09_16-33-19_260595134347_rgbf000139-resize_0-target.png,750,2.868,1.8288000000000002,3600,750,feet,750381,902117,44,Man
165,710814,DepthScenes,duration_manipulation_targetAtFixation,jsons/ad_3.json,http://100.27.21.195/DepthDuration/v2_depth_duration_MTurk/v2_DepthDuration_HTML.html#8,8,1600,789,1600,900,9-11-2021,14-50-23,166,depth_duration_stimuli/001056_2014-06-08_18-46-44_260595134347_rgbf000068-resize_0/001056_2014-06-08_18-46-44_260595134347_rgbf000068-resize_0-target.png,750,2.6625,2.4384,4559,750,feet,750381,902117,44,Man
167,710814,DepthScenes,duration_manipulation_targetAtFixation,jsons/ad_3.json,http://100.27.21.195/DepthDuration/v2_depth_duration_MTurk/v2_DepthDuration_HTML.html#8,8,1600,789,1600,900,9-11-2021,14-50-23,168,depth_duration_stimuli/001828_2014-06-26_21-40-03_260595134347_rgbf000024-resize_0/001828_2014-06-26_21-40-03_260595134347_rgbf000024-resize_0-target.png,750,4.826,2.4384,3380,749,feet,750381,902117,44,Man
169,710814,DepthScenes,duration_manipulation_targetAtFixation,jsons/ad_3.json,http://100.27.21.195/DepthDuration/v2_depth_duration_MTurk/v2_DepthDuration_HTML.html#8,8,1600,789,1600,900,9-11-2021,14-50-23,170,depth_duration_stimuli/001016_2014-06-09_16-16-10_260595134347_rgbf000112-resize_5/001016_2014-06-09_16-16-10_260595134347_rgbf000112-resize_5-target.png,750,1.6565,1.524,5266,750,feet,750381,902117,44,Man
171,710814,DepthScenes,duration_manipulation_targetAtFixation,jsons/ad_3.json,http://100.27.21.195/DepthDuration/v2_depth_duration_MTurk/v2_DepthDuration_HTML.html#8,8,1600,789,1600,900,9-11-2021,14-50-23,172,depth_duration_stimuli/001175_2014-06-17_15-45-55_260595134347_rgbf000129-resize_4/001175_2014-06-17_15-45-55_260595134347_rgbf000129-resize_4-target.png,750,4.255,2.7432000000000003,2249,750,feet,750381,902117,44,Man
172,710814,DepthScenes,duration_manipulation_targetAtFixation,jsons/ad_3.json,http://100.27.21.195/DepthDuration/v2_depth_duration_MTurk/v2_DepthDuration_HTML.html#8,8,1600,789,1600,900,9-11-2021,14-50-23,173,depth_duration_stimuli/001244_2014-06-17_16-47-45_260595134347_rgbf000030-resize_4/001244_2014-06-17_16-47-45_260595134347_rgbf000030-resize_4-target.png,750,2.0425,2.4384,2798,749,feet,750381,902117,44,Man
173,710814,DepthScenes,duration_manipulation_targetAtFixation,jsons/ad_3.json,http://100.27.21.195/DepthDuration/v2_depth_duration_MTurk/v2_DepthDuration_HTML.html#8,8,1600,789,1600,900,9-11-2021,14-50-23,174,depth_duration_stimuli/000009_2014-05-26_14-32-05_260595134347_rgbf000034-resize_3/000009_2014-05-26_14-32-05_260595134347_rgbf000034-resize_3-target.png,750,3.8715,2.7432000000000003,2190,749,feet,750381,902117,44,Man
177,710814,DepthScenes,duration_manipulation_targetAtFixation,jsons/ad_3.json,http://100.27.21.195/DepthDuration/v2_depth_duration_MTurk/v2_DepthDuration_HTML.html#8,8,1600,789,1600,900,9-11-2021,14-50-23,178,depth_duration_stimuli/000740_2014-06-08_18-46-23_260595134347_rgbf000049-resize_6/000740_2014-06-08_18-46-23_260595134347_rgbf000049-resize_6-target.png,750,1.687,0.9144000000000001,2221,749,feet,750381,902117,44,Man
183,710814,DepthScenes,duration_manipulation_targetAtFixation,jsons/ad_3.json,http://100.27.21.195/DepthDuration/v2_depth_duration_MTurk/v2_DepthDuration_HTML.html#8,8,1600,789,1600,900,9-11-2021,14-50-23,184,depth_duration_stimuli/000758_2014-06-08_22-05-08_260595134347_rgbf000085-resize_0/000758_2014-06-08_22-05-08_260595134347_rgbf000085-resize_0-target.png,750,3.381,2.7432000000000003,2031,748,feet,750381,902117,44,Man
185,710814,DepthScenes,duration_manipulation_targetAtFixation,jsons/ad_3.json,http://100.27.21.195/DepthDuration/v2_depth_duration_MTurk/v2_DepthDuration_HTML.html#8,8,1600,789,1600,900,9-11-2021,14-50-23,186,depth_duration_stimuli/000735_2014-06-08_18-23-50_260595134347_rgbf000163-resize_2/000735_2014-06-08_18-23-50_260595134347_rgbf000163-resize_2-target.png,750,4.1695,1.524,2786,748,feet,750381,902117,44,Man
192,665311,DepthScenes,duration_manipulation_targetAtFixation,jsons/ah.json,http://35.173.220.167/DepthDuration/v2_depth_duration_MTurk/v2_DepthDuration_HTML.html#1,1,1150,643,1366,768,9-7-2021,14-55-22,1,depth_duration_stimuli/001264_2014-06-16_16-10-23_260595134347_rgbf000109-resize_1/001264_2014-06-16_16-10-23_260595134347_rgbf000109-resize_1-target.png,750,2.9665,1.524,3684,748,feet,1149535,1196883,25,Man
196,665311,DepthScenes,duration_manipulation_targetAtFixation,jsons/ah.json,http://35.173.220.167/DepthDuration/v2_depth_duration_MTurk/v2_DepthDuration_HTML.html#1,1,1150,643,1366,768,9-7-2021,14-55-22,5,depth_duration_stimuli/003423_2014-05-21_10-23-26_094959634447_rgbf002665-resize_2/003423_2014-05-21_10-23-26_094959634447_rgbf002665-resize_2-target.png,750,3.2575,1.8288000000000002,5104,748,feet,1149535,1196883,25,Man
203,665311,DepthScenes,duration_manipulation_targetAtFixation,jsons/ah.json,http://35.173.220.167/DepthDuration/v2_depth_duration_MTurk/v2_DepthDuration_HTML.html#1,1,1150,643,1366,768,9-7-2021,14-55-22,12,depth_duration_stimuli/000665_2014-06-09_20-42-35_260595134347_rgbf000110-resize_1/000665_2014-06-09_20-42-35_260595134347_rgbf000110-resize_1-target.png,750,3.057,1.2192,3409,739,feet,1149535,1196883,25,Man
207,665311,DepthScenes,duration_manipulation_targetAtFixation,jsons/ah.json,http://35.173.220.167/DepthDuration/v2_depth_duration_MTurk/v2_DepthDuration_HTML.html#1,1,1150,643,1366,768,9-7-2021,14-55-22,16,depth_duration_stimuli/002784_2014-06-22_19-26-30_094959634447_rgbf000083-resize_3/002784_2014-06-22_19-26-30_094959634447_rgbf000083-resize_3-target.png,750,1.8046666666667,1.2192,3440,756,feet,1149535,1196883,25,Man
212,665311,DepthScenes,duration_manipulation_targetAtFixation,jsons/ah.json,http://35.173.220.167/DepthDuration/v2_depth_duration_MTurk/v2_DepthDuration_HTML.html#1,1,1150,643,1366,768,9-7-2021,14-55-22,21,depth_duration_stimuli/002039_2014-06-24_20-22-38_260595134347_rgbf000084-resize_1/002039_2014-06-24_20-22-38_260595134347_rgbf000084-resize_1-target.png,750,4.408,2.4384,3618,751,feet,1149535,1196883,25,Man
214,665311,DepthScenes,duration_manipulation_targetAtFixation,jsons/ah.json,http://35.173.220.167/DepthDuration/v2_depth_duration_MTurk/v2_DepthDuration_HTML.html#1,1,1150,643,1366,768,9-7-2021,14-55-22,23,depth_duration_stimuli/002375_2014-06-28_20-13-44_260595134347_rgbf000032-resize_1/002375_2014-06-28_20-13-44_260595134347_rgbf000032-resize_1-target.png,750,4.0175,2.4384,3374,747,feet,1149535,1196883,25,Man
222,665311,DepthScenes,duration_manipulation_targetAtFixation,jsons/ah.json,http://35.173.220.167/DepthDuration/v2_depth_duration_MTurk/v2_DepthDuration_HTML.html#1,1,1150,643,1366,768,9-7-2021,14-55-22,31,depth_duration_stimuli/002509_2014-06-24_13-19-22_094959634447_rgbf000077-resize_0/002509_2014-06-24_13-19-22_094959634447_rgbf000077-resize_0-target.png,750,1.3065,1.524,3188,743,feet,1149535,1196883,25,Man
226,665311,DepthScenes,duration_manipulation_targetAtFixation,jsons/ah.json,http://35.173.220.167/DepthDuration/v2_depth_duration_MTurk/v2_DepthDuration_HTML.html#1,1,1150,643,1366,768,9-7-2021,14-55-22,35,depth_duration_stimuli/001618_2014-06-20_11-37-31_260595134347_rgbf000027-resize_3/001618_2014-06-20_11-37-31_260595134347_rgbf000027-resize_3-target.png,750,1.8725,1.8288000000000002,3433,762,feet,1149535,1196883,25,Man
231,665311,DepthScenes,duration_manipulation_targetAtFixation,jsons/ah.json,http://35.173.220.167/DepthDuration/v2_depth_duration_MTurk/v2_DepthDuration_HTML.html#1,1,1150,643,1366,768,9-7-2021,14-55-22,40,depth_duration_stimuli/002630_2014-06-24_14-47-50_094959634447_rgbf000055-resize_1/002630_2014-06-24_14-47-50_094959634447_rgbf000055-resize_1-target.png,750,3.0095,1.8288000000000002,3270,741,feet,1149535,1196883,25,Man
232,665311,DepthScenes,duration_manipulation_targetAtFixation,jsons/ah.json,http://35.173.220.167/DepthDuration/v2_depth_duration_MTurk/v2_DepthDuration_HTML.html#1,1,1150,643,1366,768,9-7-2021,14-55-22,41,depth_duration_stimuli/000749_2014-06-08_21-55-06_260595134347_rgbf000070-resize_2/000749_2014-06-08_21-55-06_260595134347_rgbf000070-resize_2-target.png,750,2.331,1.524,2898,752,feet,1149535,1196883,25,Man
234,665311,DepthScenes,duration_manipulation_targetAtFixation,jsons/ah.json,http://35.173.220.167/DepthDuration/v2_depth_duration_MTurk/v2_DepthDuration_HTML.html#1,1,1150,643,1366,768,9-7-2021,14-55-22,43,depth_duration_stimuli/001158_2014-06-17_15-32-16_260595134347_rgbf000138-resize_2/001158_2014-06-17_15-32-16_260595134347_rgbf000138-resize_2-target.png,750,4.5315,1.524,3334,747,feet,1149535,1196883,25,Man
237,665311,DepthScenes,duration_manipulation_targetAtFixation,jsons/ah.json,http://35.173.220.167/DepthDuration/v2_depth_duration_MTurk/v2_DepthDuration_HTML.html#1,1,1150,643,1366,768,9-7-2021,14-55-22,46,depth_duration_stimuli/000522_2014-06-08_13-35-06_260595134347_rgbf000244-resize_1/000522_2014-06-08_13-35-06_260595134347_rgbf000244-resize_1-target.png,750,2.3715,1.524,3079,748,feet,1149535,1196883,25,Man
245,665311,DepthScenes,duration_manipulation_targetAtFixation,jsons/ah.json,http://35.173.220.167/DepthDuration/v2_depth_duration_MTurk/v2_DepthDuration_HTML.html#1,1,1150,643,1366,768,9-7-2021,14-55-22,54,depth_duration_stimuli/002639_2014-06-24_14-51-37_094959634447_rgbf000074-resize_4/002639_2014-06-24_14-51-37_094959634447_rgbf000074-resize_4-target.png,750,4.0375,2.4384,3072,745,feet,1149535,1196883,25,Man
247,665311,DepthScenes,duration_manipulation_targetAtFixation,jsons/ah.json,http://35.173.220.167/DepthDuration/v2_depth_duration_MTurk/v2_DepthDuration_HTML.html#1,1,1150,643,1366,768,9-7-2021,14-55-22,56,depth_duration_stimuli/002600_2014-06-24_14-27-04_094959634447_rgbf000074-resize_2/002600_2014-06-24_14-27-04_094959634447_rgbf000074-resize_2-target.png,750,2.7575,1.524,3792,747,feet,1149535,1196883,25,Man
248,665311,DepthScenes,duration_manipulation_targetAtFixation,jsons/ah.json,http://35.173.220.167/DepthDuration/v2_depth_duration_MTurk/v2_DepthDuration_HTML.html#1,1,1150,643,1366,768,9-7-2021,14-55-22,57,depth_duration_stimuli/003288_2014-05-14_21-50-30_094959634447_rgbf000028-resize_3/003288_2014-05-14_21-50-30_094959634447_rgbf000028-resize_3-target.png,750,3.877,1.8288000000000002,3130,753,feet,1149535,1196883,25,Man
249,665311,DepthScenes,duration_manipulation_targetAtFixation,jsons/ah.json,http://35.173.220.167/DepthDuration/v2_depth_duration_MTurk/v2_DepthDuration_HTML.html#1,1,1150,643,1366,768,9-7-2021,14-55-22,58,depth_duration_stimuli/001132_2014-06-17_14-48-54_260595134347_rgbf000100-resize_2/001132_2014-06-17_14-48-54_260595134347_rgbf000100-resize_2-target.png,750,3.753,2.4384,3056,742,feet,1149535,1196883,25,Man
254,665311,DepthScenes,duration_manipulation_targetAtFixation,jsons/ah.json,http://35.173.220.167/DepthDuration/v2_depth_duration_MTurk/v2_DepthDuration_HTML.html#1,1,1150,643,1366,768,9-7-2021,14-55-22,63,depth_duration_stimuli/000810_2014-06-08_17-20-01_260595134347_rgbf000105-resize_0/000810_2014-06-08_17-20-01_260595134347_rgbf000105-resize_0-target.png,750,1.4865,2.7432000000000003,3536,746,feet,1149535,1196883,25,Man
256,665311,DepthScenes,duration_manipulation_targetAtFixation,jsons/ah.json,http://35.173.220.167/DepthDuration/v2_depth_duration_MTurk/v2_DepthDuration_HTML.html#1,1,1150,643,1366,768,9-7-2021,14-55-22,65,depth_duration_stimuli/002989_2014-06-15_12-25-03_094959634447_rgbf000150-resize_3/002989_2014-06-15_12-25-03_094959634447_rgbf000150-resize_3-target.png,750,4.1975,1.2192,3277,750,feet,1149535,1196883,25,Man
260,665311,DepthScenes,duration_manipulation_targetAtFixation,jsons/ah.json,http://35.173.220.167/DepthDuration/v2_depth_duration_MTurk/v2_DepthDuration_HTML.html#1,1,1150,643,1366,768,9-7-2021,14-55-22,69,depth_duration_stimuli/001810_2014-06-26_20-51-35_260595134347_rgbf000040-resize_3/001810_2014-06-26_20-51-35_260595134347_rgbf000040-resize_3-target.png,750,2.2525,1.524,3841,750,feet,1149535,1196883,25,Man
263,665311,DepthScenes,duration_manipulation_targetAtFixation,jsons/ah.json,http://35.173.220.167/DepthDuration/v2_depth_duration_MTurk/v2_DepthDuration_HTML.html#1,1,1150,643,1366,768,9-7-2021,14-55-22,72,depth_duration_stimuli/002763_2014-06-22_19-13-10_094959634447_rgbf000075-resize_4/002763_2014-06-22_19-13-10_094959634447_rgbf000075-resize_4-target.png,750,1.68375,1.2192,3374,751,feet,1149535,1196883,25,Man
264,665311,DepthScenes,duration_manipulation_targetAtFixation,jsons/ah.json,http://35.173.220.167/DepthDuration/v2_depth_duration_MTurk/v2_DepthDuration_HTML.html#1,1,1150,643,1366,768,9-7-2021,14-55-22,73,depth_duration_stimuli/001052_2014-06-08_18-24-54_260595134347_rgbf000130-resize_1/001052_2014-06-08_18-24-54_260595134347_rgbf000130-resize_1-target.png,750,4.1045,1.524,3338,743,feet,1149535,1196883,25,Man
269,665311,DepthScenes,duration_manipulation_targetAtFixation,jsons/ah.json,http://35.173.220.167/DepthDuration/v2_depth_duration_MTurk/v2_DepthDuration_HTML.html#1,1,1150,643,1366,768,9-7-2021,14-55-22,78,depth_duration_stimuli/002678_2014-06-13_16-15-32_094959634447_rgbf000151-resize_6/002678_2014-06-13_16-15-32_094959634447_rgbf000151-resize_6-target.png,750,2.183,2.4384,24712,740,feet,1149535,1196883,25,Man
287,665311,DepthScenes,duration_manipulation_targetAtFixation,jsons/ah.json,http://35.173.220.167/DepthDuration/v2_depth_duration_MTurk/v2_DepthDuration_HTML.html#1,1,1150,643,1366,768,9-7-2021,14-55-22,96,depth_duration_stimuli/000470_2014-06-09_19-42-40_260595134347_rgbf000094-resize_1/000470_2014-06-09_19-42-40_260595134347_rgbf000094-resize_1-target.png,750,1.831,1.8288000000000002,3354,743,feet,1149535,1196883,25,Man
290,665311,DepthScenes,duration_manipulation_targetAtFixation,jsons/ah.json,http://35.173.220.167/DepthDuration/v2_depth_duration_MTurk/v2_DepthDuration_HTML.html#1,1,1150,643,1366,768,9-7-2021,14-55-22,99,depth_duration_stimuli/002445_2014-06-28_20-32-16_260595134347_rgbf000029-resize_4/002445_2014-06-28_20-32-16_260595134347_rgbf000029-resize_4-target.png,750,2.5315,1.2192,3652,736,feet,1149535,1196883,25,Man
295,665311,DepthScenes,duration_manipulation_targetAtFixation,jsons/ah.json,http://35.173.220.167/DepthDuration/v2_depth_duration_MTurk/v2_DepthDuration_HTML.html#1,1,1150,643,1366,768,9-7-2021,14-55-22,104,depth_duration_stimuli/001808_2014-06-26_20-50-58_260595134347_rgbf000029-resize_1/001808_2014-06-26_20-50-58_260595134347_rgbf000029-resize_1-target.png,750,4.249,3.048,3745,751,feet,1149535,1196883,25,Man
298,665311,DepthScenes,duration_manipulation_targetAtFixation,jsons/ah.json,http://35.173.220.167/DepthDuration/v2_depth_duration_MTurk/v2_DepthDuration_HTML.html#1,1,1150,643,1366,768,9-7-2021,14-55-22,107,depth_duration_stimuli/002344_2014-06-28_20-06-29_260595134347_rgbf000030-resize_1/002344_2014-06-28_20-06-29_260595134347_rgbf000030-resize_1-target.png,750,1.5795,1.8288000000000002,3162,752,feet,1149535,1196883,25,Man
301,665311,DepthScenes,duration_manipulation_targetAtFixation,jsons/ah.json,http://35.173.220.167/DepthDuration/v2_depth_duration_MTurk/v2_DepthDuration_HTML.html#1,1,1150,643,1366,768,9-7-2021,14-55-22,110,depth_duration_stimuli/002700_2014-06-22_11-27-02_094959634447_rgbf000124-resize_3/002700_2014-06-22_11-27-02_094959634447_rgbf000124-resize_3-target.png,750,3.301,1.8288000000000002,3177,749,feet,1149535,1196883,25,Man
307,665311,DepthScenes,duration_manipulation_targetAtFixation,jsons/ah.json,http://35.173.220.167/DepthDuration/v2_depth_duration_MTurk/v2_DepthDuration_HTML.html#1,1,1150,643,1366,768,9-7-2021,14-55-22,116,depth_duration_stimuli/000692_2014-06-08_13-09-42_260595134347_rgbf000199-resize_2/000692_2014-06-08_13-09-42_260595134347_rgbf000199-resize_2-target.png,750,3.661,3.048,3376,748,feet,1149535,1196883,25,Man
308,665311,DepthScenes,duration_manipulation_targetAtFixation,jsons/ah.json,http://35.173.220.167/DepthDuration/v2_depth_duration_MTurk/v2_DepthDuration_HTML.html#1,1,1150,643,1366,768,9-7-2021,14-55-22,117,depth_duration_stimuli/001532_2014-06-20_16-50-41_260595134347_rgbf000081-resize_4/001532_2014-06-20_16-50-41_260595134347_rgbf000081-resize_4-target.png,750,1.5758333333333,1.524,3374,745,feet,1149535,1196883,25,Man
312,665311,DepthScenes,duration_manipulation_targetAtFixation,jsons/ah.json,http://35.173.220.167/DepthDuration/v2_depth_duration_MTurk/v2_DepthDuration_HTML.html#1,1,1150,643,1366,768,9-7-2021,14-55-22,121,depth_duration_stimuli/001011_2014-06-08_23-18-54_260595134347_rgbf000044-resize_4/001011_2014-06-08_23-18-54_260595134347_rgbf000044-resize_4-target.png,750,2.473,2.7432000000000003,5138,742,feet,1149535,1196883,25,Man
313,665311,DepthScenes,duration_manipulation_targetAtFixation,jsons/ah.json,http://35.173.220.167/DepthDuration/v2_depth_duration_MTurk/v2_DepthDuration_HTML.html#1,1,1150,643,1366,768,9-7-2021,14-55-22,122,depth_duration_stimuli/002305_2014-06-28_19-56-50_260595134347_rgbf000102-resize_7/002305_2014-06-28_19-56-50_260595134347_rgbf000102-resize_7-target.png,750,4.8725,2.7432000000000003,3170,753,feet,1149535,1196883,25,Man
317,665311,DepthScenes,duration_manipulation_targetAtFixation,jsons/ah.json,http://35.173.220.167/DepthDuration/v2_depth_duration_MTurk/v2_DepthDuration_HTML.html#1,1,1150,643,1366,768,9-7-2021,14-55-22,126,depth_duration_stimuli/001828_2014-06-26_21-40-03_260595134347_rgbf000024-resize_0/001828_2014-06-26_21-40-03_260595134347_rgbf000024-resize_0-target.png,750,4.826,2.4384,3409,746,feet,1149535,1196883,25,Man
320,665311,DepthScenes,duration_manipulation_targetAtFixation,jsons/ah.json,http://35.173.220.167/DepthDuration/v2_depth_duration_MTurk/v2_DepthDuration_HTML.html#1,1,1150,643,1366,768,9-7-2021,14-55-22,129,depth_duration_stimuli/000103_2014-05-14_22-01-17_260595134347_rgbf000152-resize_5/000103_2014-05-14_22-01-17_260595134347_rgbf000152-resize_5-target.png,750,1.993,1.8288000000000002,3092,758,feet,1149535,1196883,25,Man
322,665311,DepthScenes,duration_manipulation_targetAtFixation,jsons/ah.json,http://35.173.220.167/DepthDuration/v2_depth_duration_MTurk/v2_DepthDuration_HTML.html#1,1,1150,643,1366,768,9-7-2021,14-55-22,131,depth_duration_stimuli/001815_2014-06-26_20-52-55_260595134347_rgbf000020-resize_0/001815_2014-06-26_20-52-55_260595134347_rgbf000020-resize_0-target.png,750,3.3865,1.8288000000000002,3649,750,feet,1149535,1196883,25,Man
334,665311,DepthScenes,duration_manipulation_targetAtFixation,jsons/ah.json,http://35.173.220.167/DepthDuration/v2_depth_duration_MTurk/v2_DepthDuration_HTML.html#1,1,1150,643,1366,768,9-7-2021,14-55-22,143,depth_duration_stimuli/003079_2014-06-15_15-18-20_094959634447_rgbf000152-resize_8/003079_2014-06-15_15-18-20_094959634447_rgbf000152-resize_8-target.png,750,2.8775,2.1336,3649,742,feet,1149535,1196883,25,Man
343,665311,DepthScenes,duration_manipulation_targetAtFixation,jsons/ah.json,http://35.173.220.167/DepthDuration/v2_depth_duration_MTurk/v2_DepthDuration_HTML.html#1,1,1150,643,1366,768,9-7-2021,14-55-22,152,depth_duration_stimuli/002464_2014-06-28_20-36-57_260595134347_rgbf000029-resize_0/002464_2014-06-28_20-36-57_260595134347_rgbf000029-resize_0-target.png,750,3.9525,2.1336,3214,737,feet,1149535,1196883,25,Man
346,665311,DepthScenes,duration_manipulation_targetAtFixation,jsons/ah.json,http://35.173.220.167/DepthDuration/v2_depth_duration_MTurk/v2_DepthDuration_HTML.html#1,1,1150,643,1366,768,9-7-2021,14-55-22,155,depth_duration_stimuli/002748_2014-06-22_19-07-22_094959634447_rgbf000078-resize_1/002748_2014-06-22_19-07-22_094959634447_rgbf000078-resize_1-target.png,750,4.6705,1.8288000000000002,4881,752,feet,1149535,1196883,25,Man
351,665311,DepthScenes,duration_manipulation_targetAtFixation,jsons/ah.json,http://35.173.220.167/DepthDuration/v2_depth_duration_MTurk/v2_DepthDuration_HTML.html#1,1,1150,643,1366,768,9-7-2021,14-55-22,160,depth_duration_stimuli/001447_2014-06-19_17-00-32_260595134347_rgbf000082-resize_5/001447_2014-06-19_17-00-32_260595134347_rgbf000082-resize_5-target.png,750,4.13775,2.7432000000000003,3500,746,feet,1149535,1196883,25,Man
354,665311,DepthScenes,duration_manipulation_targetAtFixation,jsons/ah.json,http://35.173.220.167/DepthDuration/v2_depth_duration_MTurk/v2_DepthDuration_HTML.html#1,1,1150,643,1366,768,9-7-2021,14-55-22,163,depth_duration_stimuli/000691_2014-06-08_13-08-50_260595134347_rgbf000132-resize_3/000691_2014-06-08_13-08-50_260595134347_rgbf000132-resize_3-target.png,750,4.153,1.8288000000000002,3174,751,feet,1149535,1196883,25,Man
360,665311,DepthScenes,duration_manipulation_targetAtFixation,jsons/ah.json,http://35.173.220.167/DepthDuration/v2_depth_duration_MTurk/v2_DepthDuration_HTML.html#1,1,1150,643,1366,768,9-7-2021,14-55-22,169,depth_duration_stimuli/002209_2014-06-28_18-36-10_260595134347_rgbf000051-resize_1/002209_2014-06-28_18-36-10_260595134347_rgbf000051-resize_1-target.png,750,2.057,1.524,3440,741,feet,1149535,1196883,25,Man
361,665311,DepthScenes,duration_manipulation_targetAtFixation,jsons/ah.json,http://35.173.220.167/DepthDuration/v2_depth_duration_MTurk/v2_DepthDuration_HTML.html#1,1,1150,643,1366,768,9-7-2021,14-55-22,170,depth_duration_stimuli/003490_2014-05-21_15-50-11_094959634447_rgbf000101-resize_3/003490_2014-05-21_15-50-11_094959634447_rgbf000101-resize_3-target.png,750,3.6445,1.2192,3520,740,feet,1149535,1196883,25,Man
363,665311,DepthScenes,duration_manipulation_targetAtFixation,jsons/ah.json,http://35.173.220.167/DepthDuration/v2_depth_duration_MTurk/v2_DepthDuration_HTML.html#1,1,1150,643,1366,768,9-7-2021,14-55-22,172,depth_duration_stimuli/001110_2014-06-15_17-25-28_260595134347_rgbf000150-resize_1/001110_2014-06-15_17-25-28_260595134347_rgbf000150-resize_1-target.png,750,1.7115,1.524,3141,747,feet,1149535,1196883,25,Man
368,665311,DepthScenes,duration_manipulation_targetAtFixation,jsons/ah.json,http://35.173.220.167/DepthDuration/v2_depth_duration_MTurk/v2_DepthDuration_HTML.html#1,1,1150,643,1366,768,9-7-2021,14-55-22,177,depth_duration_stimuli/002468_2014-06-28_20-38-39_260595134347_rgbf000045-resize_1/002468_2014-06-28_20-38-39_260595134347_rgbf000045-resize_1-target.png,750,1.956,2.4384,7031,743,feet,1149535,1196883,25,Man
373,665311,DepthScenes,duration_manipulation_targetAtFixation,jsons/ah.json,http://35.173.220.167/DepthDuration/v2_depth_duration_MTurk/v2_DepthDuration_HTML.html#1,1,1150,643,1366,768,9-7-2021,14-55-22,182,depth_duration_stimuli/003228_2014-05-14_13-42-35_094959634447_rgbf000101-resize_1/003228_2014-05-14_13-42-35_094959634447_rgbf000101-resize_1-target.png,750,1.968,1.524,3242,752,feet,1149535,1196883,25,Man
378,665311,DepthScenes,duration_manipulation_targetAtFixation,jsons/ah.json,http://35.173.220.167/DepthDuration/v2_depth_duration_MTurk/v2_DepthDuration_HTML.html#1,1,1150,643,1366,768,9-7-2021,14-55-22,187,depth_duration_stimuli/002118_2014-06-25_20-32-08_260595134347_rgbf000078-resize_1/002118_2014-06-25_20-32-08_260595134347_rgbf000078-resize_1-target.png,750,2.646,2.4384,3430,752,feet,1149535,1196883,25,Man
379,665311,DepthScenes,duration_manipulation_targetAtFixation,jsons/ah.json,http://35.173.220.167/DepthDuration/v2_depth_duration_MTurk/v2_DepthDuration_HTML.html#1,1,1150,643,1366,768,9-7-2021,14-55-22,188,depth_duration_stimuli/000736_2014-06-08_18-24-15_260595134347_rgbf000206-resize_3/000736_2014-06-08_18-24-15_260595134347_rgbf000206-resize_3-target.png,750,3.515,1.2192,3389,744,feet,1149535,1196883,25,Man
382,665311,DepthScenes,duration_manipulation_targetAtFixation,jsons/ah.json,http://35.173.220.167/DepthDuration/v2_depth_duration_MTurk/v2_DepthDuration_HTML.html#1,1,1150,643,1366,768,9-7-2021,14-55-22,191,depth_duration_stimuli/000682_2014-06-08_23-14-58_260595134347_rgbf000041-resize_5/000682_2014-06-08_23-14-58_260595134347_rgbf000041-resize_5-target.png,750,2.724,1.8288000000000002,3461,742,feet,1149535,1196883,25,Man
384,401808,DepthScenes,duration_manipulation_targetAtFixation,jsons/al_3.json,http://35.173.220.167/DepthDuration/v2_depth_duration_MTurk/v2_DepthDuration_HTML.html#47,47,1366,768,1366,768,9-5-2021,8-5-19,1,depth_duration_stimuli/000917_2014-06-09_22-45-29_260595134347_rgbf000149-resize_3/000917_2014-06-09_22-45-29_260595134347_rgbf000149-resize_3-target.png,750,4.1865,3.6576000000000004,4053,763,feet,664040,772718,36,Man
385,401808,DepthScenes,duration_manipulation_targetAtFixation,jsons/al_3.json,http://35.173.220.167/DepthDuration/v2_depth_duration_MTurk/v2_DepthDuration_HTML.html#47,47,1366,768,1366,768,9-5-2021,8-5-19,2,depth_duration_stimuli/002875_2014-06-01_15-19-00_094959634447_rgbf000151-resize_1/002875_2014-06-01_15-19-00_094959634447_rgbf000151-resize_1-target.png,750,1.9675,1.2192,4615,740,feet,664040,772718,36,Man
396,401808,DepthScenes,duration_manipulation_targetAtFixation,jsons/al_3.json,http://35.173.220.167/DepthDuration/v2_depth_duration_MTurk/v2_DepthDuration_HTML.html#47,47,1366,768,1366,768,9-5-2021,8-5-19,13,depth_duration_stimuli/001133_2014-06-17_14-49-16_260595134347_rgbf000100-resize_0/001133_2014-06-17_14-49-16_260595134347_rgbf000100-resize_0-target.png,750,4.2115,4.572,3812,765,feet,664040,772718,36,Man
397,401808,DepthScenes,duration_manipulation_targetAtFixation,jsons/al_3.json,http://35.173.220.167/DepthDuration/v2_depth_duration_MTurk/v2_DepthDuration_HTML.html#47,47,1366,768,1366,768,9-5-2021,8-5-19,14,depth_duration_stimuli/000009_2014-05-26_14-32-05_260595134347_rgbf000034-resize_3/000009_2014-05-26_14-32-05_260595134347_rgbf000034-resize_3-target.png,750,3.8715,5.486400000000001,2873,748,feet,664040,772718,36,Man
399,401808,DepthScenes,duration_manipulation_targetAtFixation,jsons/al_3.json,http://35.173.220.167/DepthDuration/v2_depth_duration_MTurk/v2_DepthDuration_HTML.html#47,47,1366,768,1366,768,9-5-2021,8-5-19,16,depth_duration_stimuli/000502_2014-06-08_23-02-32_260595134347_rgbf000063-resize_4/000502_2014-06-08_23-02-32_260595134347_rgbf000063-resize_4-target.png,750,2.431,1.524,2791,750,feet,664040,772718,36,Man
409,401808,DepthScenes,duration_manipulation_targetAtFixation,jsons/al_3.json,http://35.173.220.167/DepthDuration/v2_depth_duration_MTurk/v2_DepthDuration_HTML.html#47,47,1366,768,1366,768,9-5-2021,8-5-19,26,depth_duration_stimuli/000642_2014-06-08_16-59-25_260595134347_rgbf000098-resize_2/000642_2014-06-08_16-59-25_260595134347_rgbf000098-resize_2-target.png,750,2.8815,2.4384,2864,749,feet,664040,772718,36,Man
410,401808,DepthScenes,duration_manipulation_targetAtFixation,jsons/al_3.json,http://35.173.220.167/DepthDuration/v2_depth_duration_MTurk/v2_DepthDuration_HTML.html#47,47,1366,768,1366,768,9-5-2021,8-5-19,27,depth_duration_stimuli/002118_2014-06-25_20-32-08_260595134347_rgbf000078-resize_1/002118_2014-06-25_20-32-08_260595134347_rgbf000078-resize_1-target.png,750,2.646,2.4384,2750,750,feet,664040,772718,36,Man
412,401808,DepthScenes,duration_manipulation_targetAtFixation,jsons/al_3.json,http://35.173.220.167/DepthDuration/v2_depth_duration_MTurk/v2_DepthDuration_HTML.html#47,47,1366,768,1366,768,9-5-2021,8-5-19,29,depth_duration_stimuli/000505_2014-06-08_23-03-23_260595134347_rgbf000091-resize_0/000505_2014-06-08_23-03-23_260595134347_rgbf000091-resize_0-target.png,750,3.3105,0.6096,2671,748,feet,664040,772718,36,Man
418,401808,DepthScenes,duration_manipulation_targetAtFixation,jsons/al_3.json,http://35.173.220.167/DepthDuration/v2_depth_duration_MTurk/v2_DepthDuration_HTML.html#47,47,1366,768,1366,768,9-5-2021,8-5-19,35,depth_duration_stimuli/000943_2014-06-09_19-31-07_260595134347_rgbf000128-resize_1/000943_2014-06-09_19-31-07_260595134347_rgbf000128-resize_1-target.png,750,1.9765,1.2192,4099,741,feet,664040,772718,36,Man
425,401808,DepthScenes,duration_manipulation_targetAtFixation,jsons/al_3.json,http://35.173.220.167/DepthDuration/v2_depth_duration_MTurk/v2_DepthDuration_HTML.html#47,47,1366,768,1366,768,9-5-2021,8-5-19,42,depth_duration_stimuli/002953_2014-06-08_17-32-18_094959634447_rgbf000059-resize_5/002953_2014-06-08_17-32-18_094959634447_rgbf000059-resize_5-target.png,750,1.551,0.9144000000000001,2502,748,feet,664040,772718,36,Man
430,401808,DepthScenes,duration_manipulation_targetAtFixation,jsons/al_3.json,http://35.173.220.167/DepthDuration/v2_depth_duration_MTurk/v2_DepthDuration_HTML.html#47,47,1366,768,1366,768,9-5-2021,8-5-19,47,depth_duration_stimuli/001032_2014-06-08_13-23-17_260595134347_rgbf000021-resize_3/001032_2014-06-08_13-23-17_260595134347_rgbf000021-resize_3-target.png,750,3.2725,2.4384,4817,748,feet,664040,772718,36,Man
431,401808,DepthScenes,duration_manipulation_targetAtFixation,jsons/al_3.json,http://35.173.220.167/DepthDuration/v2_depth_duration_MTurk/v2_DepthDuration_HTML.html#47,47,1366,768,1366,768,9-5-2021,8-5-19,48,depth_duration_stimuli/002570_2014-06-24_13-59-54_094959634447_rgbf000059-resize_0/002570_2014-06-24_13-59-54_094959634447_rgbf000059-resize_0-target.png,750,4.037,3.6576000000000004,3149,749,feet,664040,772718,36,Man
432,401808,DepthScenes,duration_manipulation_targetAtFixation,jsons/al_3.json,http://35.173.220.167/DepthDuration/v2_depth_duration_MTurk/v2_DepthDuration_HTML.html#47,47,1366,768,1366,768,9-5-2021,8-5-19,49,depth_duration_stimuli/000709_2014-06-08_13-51-55_260595134347_rgbf000068-resize_3/000709_2014-06-08_13-51-55_260595134347_rgbf000068-resize_3-target.png,750,1.803,1.524,2978,727,feet,664040,772718,36,Man
435,401808,DepthScenes,duration_manipulation_targetAtFixation,jsons/al_3.json,http://35.173.220.167/DepthDuration/v2_depth_duration_MTurk/v2_DepthDuration_HTML.html#47,47,1366,768,1366,768,9-5-2021,8-5-19,52,depth_duration_stimuli/002444_2014-06-28_20-32-08_260595134347_rgbf000027-resize_0/002444_2014-06-28_20-32-08_260595134347_rgbf000027-resize_0-target.png,750,4.389,5.1816,2913,758,feet,664040,772718,36,Man
437,401808,DepthScenes,duration_manipulation_targetAtFixation,jsons/al_3.json,http://35.173.220.167/DepthDuration/v2_depth_duration_MTurk/v2_DepthDuration_HTML.html#47,47,1366,768,1366,768,9-5-2021,8-5-19,54,depth_duration_stimuli/003546_2014-05-22_15-48-53_094959634447_rgbf004816-resize_3/003546_2014-05-22_15-48-53_094959634447_rgbf004816-resize_3-target.png,750,2.62625,1.8288000000000002,2801,748,feet,664040,772718,36,Man
438,401808,DepthScenes,duration_manipulation_targetAtFixation,jsons/al_3.json,http://35.173.220.167/DepthDuration/v2_depth_duration_MTurk/v2_DepthDuration_HTML.html#47,47,1366,768,1366,768,9-5-2021,8-5-19,55,depth_duration_stimuli/002213_2014-06-28_18-37-58_260595134347_rgbf000055-resize_1/002213_2014-06-28_18-37-58_260595134347_rgbf000055-resize_1-target.png,750,3.62,3.3528000000000002,2811,748,feet,664040,772718,36,Man
449,401808,DepthScenes,duration_manipulation_targetAtFixation,jsons/al_3.json,http://35.173.220.167/DepthDuration/v2_depth_duration_MTurk/v2_DepthDuration_HTML.html#47,47,1366,768,1366,768,9-5-2021,8-5-19,66,depth_duration_stimuli/000742_2014-06-08_18-48-09_260595134347_rgbf000164-resize_4/000742_2014-06-08_18-48-09_260595134347_rgbf000164-resize_4-target.png,750,4.632,3.6576000000000004,3966,750,feet,664040,772718,36,Man
454,401808,DepthScenes,duration_manipulation_targetAtFixation,jsons/al_3.json,http://35.173.220.167/DepthDuration/v2_depth_duration_MTurk/v2_DepthDuration_HTML.html#47,47,1366,768,1366,768,9-5-2021,8-5-19,71,depth_duration_stimuli/003010_2014-06-15_12-54-35_094959634447_rgbf000112-resize_0/003010_2014-06-15_12-54-35_094959634447_rgbf000112-resize_0-target.png,750,3.1185,4.572,3057,751,feet,664040,772718,36,Man
458,401808,DepthScenes,duration_manipulation_targetAtFixation,jsons/al_3.json,http://35.173.220.167/DepthDuration/v2_depth_duration_MTurk/v2_DepthDuration_HTML.html#47,47,1366,768,1366,768,9-5-2021,8-5-19,75,depth_duration_stimuli/002460_2014-06-28_20-35-43_260595134347_rgbf000028-resize_4/002460_2014-06-28_20-35-43_260595134347_rgbf000028-resize_4-target.png,750,2.269,0.6096,2249,746,feet,664040,772718,36,Man
459,401808,DepthScenes,duration_manipulation_targetAtFixation,jsons/al_3.json,http://35.173.220.167/DepthDuration/v2_depth_duration_MTurk/v2_DepthDuration_HTML.html#47,47,1366,768,1366,768,9-5-2021,8-5-19,76,depth_duration_stimuli/001617_2014-06-20_11-35-32_260595134347_rgbf000066-resize_1/001617_2014-06-20_11-35-32_260595134347_rgbf000066-resize_1-target.png,750,3.791,2.7432000000000003,3071,740,feet,664040,772718,36,Man
465,401808,DepthScenes,duration_manipulation_targetAtFixation,jsons/al_3.json,http://35.173.220.167/DepthDuration/v2_depth_duration_MTurk/v2_DepthDuration_HTML.html#47,47,1366,768,1366,768,9-5-2021,8-5-19,82,depth_duration_stimuli/002600_2014-06-24_14-27-04_094959634447_rgbf000074-resize_2/002600_2014-06-24_14-27-04_094959634447_rgbf000074-resize_2-target.png,750,2.7575,1.8288000000000002,2962,733,feet,664040,772718,36,Man
474,401808,DepthScenes,duration_manipulation_targetAtFixation,jsons/al_3.json,http://35.173.220.167/DepthDuration/v2_depth_duration_MTurk/v2_DepthDuration_HTML.html#47,47,1366,768,1366,768,9-5-2021,8-5-19,91,depth_duration_stimuli/000470_2014-06-09_19-42-40_260595134347_rgbf000094-resize_1/000470_2014-06-09_19-42-40_260595134347_rgbf000094-resize_1-target.png,750,1.831,1.2192,3162,743,feet,664040,772718,36,Man
476,401808,DepthScenes,duration_manipulation_targetAtFixation,jsons/al_3.json,http://35.173.220.167/DepthDuration/v2_depth_duration_MTurk/v2_DepthDuration_HTML.html#47,47,1366,768,1366,768,9-5-2021,8-5-19,93,depth_duration_stimuli/002545_2014-06-24_13-38-53_094959634447_rgbf000080-resize_4/002545_2014-06-24_13-38-53_094959634447_rgbf000080-resize_4-target.png,750,1.9205,2.1336,2949,759,feet,664040,772718,36,Man
479,401808,DepthScenes,duration_manipulation_targetAtFixation,jsons/al_3.json,http://35.173.220.167/DepthDuration/v2_depth_duration_MTurk/v2_DepthDuration_HTML.html#47,47,1366,768,1366,768,9-5-2021,8-5-19,96,depth_duration_stimuli/001052_2014-06-08_18-24-54_260595134347_rgbf000130-resize_1/001052_2014-06-08_18-24-54_260595134347_rgbf000130-resize_1-target.png,750,4.1045,3.048,3125,750,feet,664040,772718,36,Man
481,401808,DepthScenes,duration_manipulation_targetAtFixation,jsons/al_3.json,http://35.173.220.167/DepthDuration/v2_depth_duration_MTurk/v2_DepthDuration_HTML.html#47,47,1366,768,1366,768,9-5-2021,8-5-19,98,depth_duration_stimuli/000109_2014-05-14_23-41-52_260595134347_rgbf000035-resize_9/000109_2014-05-14_23-41-52_260595134347_rgbf000035-resize_9-target.png,750,1.3545,0.9144000000000001,3174,749,feet,664040,772718,36,Man
486,401808,DepthScenes,duration_manipulation_targetAtFixation,jsons/al_3.json,http://35.173.220.167/DepthDuration/v2_depth_duration_MTurk/v2_DepthDuration_HTML.html#47,47,1366,768,1366,768,9-5-2021,8-5-19,103,depth_duration_stimuli/002103_2014-06-25_20-00-40_260595134347_rgbf000049-resize_0/002103_2014-06-25_20-00-40_260595134347_rgbf000049-resize_0-target.png,750,4.105,3.048,4274,750,feet,664040,772718,36,Man
488,401808,DepthScenes,duration_manipulation_targetAtFixation,jsons/al_3.json,http://35.173.220.167/DepthDuration/v2_depth_duration_MTurk/v2_DepthDuration_HTML.html#47,47,1366,768,1366,768,9-5-2021,8-5-19,105,depth_duration_stimuli/001289_2014-06-16_16-25-52_260595134347_rgbf000067-resize_1/001289_2014-06-16_16-25-52_260595134347_rgbf000067-resize_1-target.png,750,1.8835,1.524,2541,748,feet,664040,772718,36,Man
489,401808,DepthScenes,duration_manipulation_targetAtFixation,jsons/al_3.json,http://35.173.220.167/DepthDuration/v2_depth_duration_MTurk/v2_DepthDuration_HTML.html#47,47,1366,768,1366,768,9-5-2021,8-5-19,106,depth_duration_stimuli/000736_2014-06-08_18-24-15_260595134347_rgbf000206-resize_3/000736_2014-06-08_18-24-15_260595134347_rgbf000206-resize_3-target.png,750,3.515,2.1336,3891,749,feet,664040,772718,36,Man
493,401808,DepthScenes,duration_manipulation_targetAtFixation,jsons/al_3.json,http://35.173.220.167/DepthDuration/v2_depth_duration_MTurk/v2_DepthDuration_HTML.html#47,47,1366,768,1366,768,9-5-2021,8-5-19,110,depth_duration_stimuli/002905_2014-06-03_18-04-43_094959634447_rgbf000151-resize_2/002905_2014-06-03_18-04-43_094959634447_rgbf000151-resize_2-target.png,750,2.0295,1.524,2190,750,feet,664040,772718,36,Man
503,401808,DepthScenes,duration_manipulation_targetAtFixation,jsons/al_3.json,http://35.173.220.167/DepthDuration/v2_depth_duration_MTurk/v2_DepthDuration_HTML.html#47,47,1366,768,1366,768,9-5-2021,8-5-19,120,depth_duration_stimuli/001100_2014-06-15_17-46-26_260595134347_rgbf000225-resize_2/001100_2014-06-15_17-46-26_260595134347_rgbf000225-resize_2-target.png,750,2.24,1.2192,3995,749,feet,664040,772718,36,Man
506,401808,DepthScenes,duration_manipulation_targetAtFixation,jsons/al_3.json,http://35.173.220.167/DepthDuration/v2_depth_duration_MTurk/v2_DepthDuration_HTML.html#47,47,1366,768,1366,768,9-5-2021,8-5-19,123,depth_duration_stimuli/001175_2014-06-17_15-45-55_260595134347_rgbf000129-resize_4/001175_2014-06-17_15-45-55_260595134347_rgbf000129-resize_4-target.png,750,4.255,4.572,2381,748,feet,664040,772718,36,Man
508,401808,DepthScenes,duration_manipulation_targetAtFixation,jsons/al_3.json,http://35.173.220.167/DepthDuration/v2_depth_duration_MTurk/v2_DepthDuration_HTML.html#47,47,1366,768,1366,768,9-5-2021,8-5-19,125,depth_duration_stimuli/002788_2014-06-22_19-36-03_094959634447_rgbf000088-resize_2/002788_2014-06-22_19-36-03_094959634447_rgbf000088-resize_2-target.png,750,1.6465,2.4384,2639,748,feet,664040,772718,36,Man
509,401808,DepthScenes,duration_manipulation_targetAtFixation,jsons/al_3.json,http://35.173.220.167/DepthDuration/v2_depth_duration_MTurk/v2_DepthDuration_HTML.html#47,47,1366,768,1366,768,9-5-2021,8-5-19,126,depth_duration_stimuli/000521_2014-06-08_13-34-35_260595134347_rgbf000191-resize_2/000521_2014-06-08_13-34-35_260595134347_rgbf000191-resize_2-target.png,750,3.0385,2.1336,2562,739,feet,664040,772718,36,Man
511,401808,DepthScenes,duration_manipulation_targetAtFixation,jsons/al_3.json,http://35.173.220.167/DepthDuration/v2_depth_duration_MTurk/v2_DepthDuration_HTML.html#47,47,1366,768,1366,768,9-5-2021,8-5-19,128,depth_duration_stimuli/000773_2014-06-08_22-24-54_260595134347_rgbf000093-resize_1/000773_2014-06-08_22-24-54_260595134347_rgbf000093-resize_1-target.png,750,4.973,3.3528000000000002,2919,749,feet,664040,772718,36,Man
513,401808,DepthScenes,duration_manipulation_targetAtFixation,jsons/al_3.json,http://35.173.220.167/DepthDuration/v2_depth_duration_MTurk/v2_DepthDuration_HTML.html#47,47,1366,768,1366,768,9-5-2021,8-5-19,130,depth_duration_stimuli/003081_2014-06-15_15-19-16_094959634447_rgbf000150-resize_1/003081_2014-06-15_15-19-16_094959634447_rgbf000150-resize_1-target.png,750,3.9125,3.048,2829,756,feet,664040,772718,36,Man
527,401808,DepthScenes,duration_manipulation_targetAtFixation,jsons/al_3.json,http://35.173.220.167/DepthDuration/v2_depth_duration_MTurk/v2_DepthDuration_HTML.html#47,47,1366,768,1366,768,9-5-2021,8-5-19,144,depth_duration_stimuli/002678_2014-06-13_16-15-32_094959634447_rgbf000151-resize_6/002678_2014-06-13_16-15-32_094959634447_rgbf000151-resize_6-target.png,750,2.183,1.2192,2538,747,feet,664040,772718,36,Man
528,401808,DepthScenes,duration_manipulation_targetAtFixation,jsons/al_3.json,http://35.173.220.167/DepthDuration/v2_depth_duration_MTurk/v2_DepthDuration_HTML.html#47,47,1366,768,1366,768,9-5-2021,8-5-19,145,depth_duration_stimuli/000486_2014-06-09_20-47-20_260595134347_rgbf000143-resize_2/000486_2014-06-09_20-47-20_260595134347_rgbf000143-resize_2-target.png,750,4.8325,2.1336,3051,749,feet,664040,772718,36,Man
530,401808,DepthScenes,duration_manipulation_targetAtFixation,jsons/al_3.json,http://35.173.220.167/DepthDuration/v2_depth_duration_MTurk/v2_DepthDuration_HTML.html#47,47,1366,768,1366,768,9-5-2021,8-5-19,147,depth_duration_stimuli/001016_2014-06-09_16-16-10_260595134347_rgbf000112-resize_5/001016_2014-06-09_16-16-10_260595134347_rgbf000112-resize_5-target.png,750,1.6565,1.524,2872,741,feet,664040,772718,36,Man
543,401808,DepthScenes,duration_manipulation_targetAtFixation,jsons/al_3.json,http://35.173.220.167/DepthDuration/v2_depth_duration_MTurk/v2_DepthDuration_HTML.html#47,47,1366,768,1366,768,9-5-2021,8-5-19,160,depth_duration_stimuli/003587_2014-05-23_16-48-02_094959634447_rgbf002384-resize_2/003587_2014-05-23_16-48-02_094959634447_rgbf002384-resize_2-target.png,750,1.357,0.6096,2112,749,feet,664040,772718,36,Man
550,401808,DepthScenes,duration_manipulation_targetAtFixation,jsons/al_3.json,http://35.173.220.167/DepthDuration/v2_depth_duration_MTurk/v2_DepthDuration_HTML.html#47,47,1366,768,1366,768,9-5-2021,8-5-19,167,depth_duration_stimuli/003079_2014-06-15_15-18-20_094959634447_rgbf000152-resize_8/003079_2014-06-15_15-18-20_094959634447_rgbf000152-resize_8-target.png,750,2.8775,3.3528000000000002,3358,753,feet,664040,772718,36,Man
552,401808,DepthScenes,duration_manipulation_targetAtFixation,jsons/al_3.json,http://35.173.220.167/DepthDuration/v2_depth_duration_MTurk/v2_DepthDuration_HTML.html#47,47,1366,768,1366,768,9-5-2021,8-5-19,169,depth_duration_stimuli/001235_2014-06-17_16-37-36_260595134347_rgbf000084-resize_4/001235_2014-06-17_16-37-36_260595134347_rgbf000084-resize_4-target.png,750,3.6605,1.524,2495,764,feet,664040,772718,36,Man
553,401808,DepthScenes,duration_manipulation_targetAtFixation,jsons/al_3.json,http://35.173.220.167/DepthDuration/v2_depth_duration_MTurk/v2_DepthDuration_HTML.html#47,47,1366,768,1366,768,9-5-2021,8-5-19,170,depth_duration_stimuli/000493_2014-06-09_21-01-18_260595134347_rgbf000196-resize_3/000493_2014-06-09_21-01-18_260595134347_rgbf000196-resize_3-target.png,750,3.44,2.4384,4404,748,feet,664040,772718,36,Man
554,401808,DepthScenes,duration_manipulation_targetAtFixation,jsons/al_3.json,http://35.173.220.167/DepthDuration/v2_depth_duration_MTurk/v2_DepthDuration_HTML.html#47,47,1366,768,1366,768,9-5-2021,8-5-19,171,depth_duration_stimuli/000636_2014-06-08_16-39-02_260595134347_rgbf000108-resize_4/000636_2014-06-08_16-39-02_260595134347_rgbf000108-resize_4-target.png,750,2.682,1.2192,2395,764,feet,664040,772718,36,Man
556,401808,DepthScenes,duration_manipulation_targetAtFixation,jsons/al_3.json,http://35.173.220.167/DepthDuration/v2_depth_duration_MTurk/v2_DepthDuration_HTML.html#47,47,1366,768,1366,768,9-5-2021,8-5-19,173,depth_duration_stimuli/002340_2014-06-28_20-05-46_260595134347_rgbf000113-resize_0/002340_2014-06-28_20-05-46_260595134347_rgbf000113-resize_0-target.png,750,2.4735,2.4384,3338,749,feet,664040,772718,36,Man
558,401808,DepthScenes,duration_manipulation_targetAtFixation,jsons/al_3.json,http://35.173.220.167/DepthDuration/v2_depth_duration_MTurk/v2_DepthDuration_HTML.html#47,47,1366,768,1366,768,9-5-2021,8-5-19,175,depth_duration_stimuli/001110_2014-06-15_17-25-28_260595134347_rgbf000150-resize_1/001110_2014-06-15_17-25-28_260595134347_rgbf000150-resize_1-target.png,750,1.7115,1.2192,2376,748,feet,664040,772718,36,Man
559,401808,DepthScenes,duration_manipulation_targetAtFixation,jsons/al_3.json,http://35.173.220.167/DepthDuration/v2_depth_duration_MTurk/v2_DepthDuration_HTML.html#47,47,1366,768,1366,768,9-5-2021,8-5-19,176,depth_duration_stimuli/001417_2014-06-19_16-25-36_260595134347_rgbf000115-resize_5/001417_2014-06-19_16-25-36_260595134347_rgbf000115-resize_5-target.png,750,4.6255,3.9624,2651,741,feet,664040,772718,36,Man
562,401808,DepthScenes,duration_manipulation_targetAtFixation,jsons/al_3.json,http://35.173.220.167/DepthDuration/v2_depth_duration_MTurk/v2_DepthDuration_HTML.html#47,47,1366,768,1366,768,9-5-2021,8-5-19,179,depth_duration_stimuli/001197_2014-06-17_16-01-50_260595134347_rgbf000103-resize_4/001197_2014-06-17_16-01-50_260595134347_rgbf000103-resize_4-target.png,750,3.4025,1.8288000000000002,2898,735,feet,664040,772718,36,Man
575,401808,DepthScenes,duration_manipulation_targetAtFixation,jsons/al_3.json,http://35.173.220.167/DepthDuration/v2_depth_duration_MTurk/v2_DepthDuration_HTML.html#47,47,1366,768,1366,768,9-5-2021,8-5-19,192,depth_duration_stimuli/001450_2014-06-19_17-02-03_260595134347_rgbf000203-resize_4/001450_2014-06-19_17-02-03_260595134347_rgbf000203-resize_4-target.png,750,4.0106666666667,4.2672,2424,749,feet,664040,772718,36,Man
579,811430,DepthScenes,duration_manipulation_targetAtFixation,jsons/af.json,http://34.238.49.31/DepthDuration/v2_depth_duration_MTurk/v2_DepthDuration_HTML.html#17,17,1571,864,1920,1080,9-19-2021,8-12-58,4,depth_duration_stimuli/000522_2014-06-08_13-35-06_260595134347_rgbf000244-resize_1/000522_2014-06-08_13-35-06_260595134347_rgbf000244-resize_1-target.png,750,2.3715,0.3048,2487,737,feet,690249,782584,26,Woman
581,811430,DepthScenes,duration_manipulation_targetAtFixation,jsons/af.json,http://34.238.49.31/DepthDuration/v2_depth_duration_MTurk/v2_DepthDuration_HTML.html#17,17,1571,864,1920,1080,9-19-2021,8-12-58,6,depth_duration_stimuli/001214_2014-06-17_16-13-55_260595134347_rgbf000111-resize_0/001214_2014-06-17_16-13-55_260595134347_rgbf000111-resize_0-target.png,750,2.6505,1.2192,2232,741,feet,690249,782584,26,Woman
586,811430,DepthScenes,duration_manipulation_targetAtFixation,jsons/af.json,http://34.238.49.31/DepthDuration/v2_depth_duration_MTurk/v2_DepthDuration_HTML.html#17,17,1571,864,1920,1080,9-19-2021,8-12-58,11,depth_duration_stimuli/003081_2014-06-15_15-19-16_094959634447_rgbf000150-resize_1/003081_2014-06-15_15-19-16_094959634447_rgbf000150-resize_1-target.png,750,3.9125,1.8288000000000002,2317,751,feet,690249,782584,26,Woman
597,811430,DepthScenes,duration_manipulation_targetAtFixation,jsons/af.json,http://34.238.49.31/DepthDuration/v2_depth_duration_MTurk/v2_DepthDuration_HTML.html#17,17,1571,864,1920,1080,9-19-2021,8-12-58,22,depth_duration_stimuli/001555_2014-06-20_17-12-10_260595134347_rgbf000065-resize_4/001555_2014-06-20_17-12-10_260595134347_rgbf000065-resize_4-target.png,750,1.633,0.6096,2041,749,feet,690249,782584,26,Woman
600,811430,DepthScenes,duration_manipulation_targetAtFixation,jsons/af.json,http://34.238.49.31/DepthDuration/v2_depth_duration_MTurk/v2_DepthDuration_HTML.html#17,17,1571,864,1920,1080,9-19-2021,8-12-58,25,depth_duration_stimuli/003069_2014-06-15_14-57-50_094959634447_rgbf000150-resize_4/003069_2014-06-15_14-57-50_094959634447_rgbf000150-resize_4-target.png,750,4.208,1.524,2525,750,feet,690249,782584,26,Woman
601,811430,DepthScenes,duration_manipulation_targetAtFixation,jsons/af.json,http://34.238.49.31/DepthDuration/v2_depth_duration_MTurk/v2_DepthDuration_HTML.html#17,17,1571,864,1920,1080,9-19-2021,8-12-58,26,depth_duration_stimuli/000830_2014-06-04_19-49-31_260595134347_rgbf000096-resize_2/000830_2014-06-04_19-49-31_260595134347_rgbf000096-resize_2-target.png,750,2.6353333333333,1.524,2590,761,feet,690249,782584,26,Woman
603,811430,DepthScenes,duration_manipulation_targetAtFixation,jsons/af.json,http://34.238.49.31/DepthDuration/v2_depth_duration_MTurk/v2_DepthDuration_HTML.html#17,17,1571,864,1920,1080,9-19-2021,8-12-58,28,depth_duration_stimuli/001450_2014-06-19_17-02-03_260595134347_rgbf000203-resize_4/001450_2014-06-19_17-02-03_260595134347_rgbf000203-resize_4-target.png,750,4.0106666666667,1.2192,2568,747,feet,690249,782584,26,Woman
604,811430,DepthScenes,duration_manipulation_targetAtFixation,jsons/af.json,http://34.238.49.31/DepthDuration/v2_depth_duration_MTurk/v2_DepthDuration_HTML.html#17,17,1571,864,1920,1080,9-19-2021,8-12-58,29,depth_duration_stimuli/002103_2014-06-25_20-00-40_260595134347_rgbf000049-resize_0/002103_2014-06-25_20-00-40_260595134347_rgbf000049-resize_0-target.png,750,4.105,1.524,2891,744,feet,690249,782584,26,Woman
609,811430,DepthScenes,duration_manipulation_targetAtFixation,jsons/af.json,http://34.238.49.31/DepthDuration/v2_depth_duration_MTurk/v2_DepthDuration_HTML.html#17,17,1571,864,1920,1080,9-19-2021,8-12-58,34,depth_duration_stimuli/000720_2014-06-08_18-37-27_260595134347_rgbf000203-resize_4/000720_2014-06-08_18-37-27_260595134347_rgbf000203-resize_4-target.png,750,1.558,0.9144000000000001,2616,749,feet,690249,782584,26,Woman
610,811430,DepthScenes,duration_manipulation_targetAtFixation,jsons/af.json,http://34.238.49.31/DepthDuration/v2_depth_duration_MTurk/v2_DepthDuration_HTML.html#17,17,1571,864,1920,1080,9-19-2021,8-12-58,35,depth_duration_stimuli/002568_2014-06-24_13-59-21_094959634447_rgbf000062-resize_4/002568_2014-06-24_13-59-21_094959634447_rgbf000062-resize_4-target.png,750,3.015,1.524,3542,751,feet,690249,782584,26,Woman
621,811430,DepthScenes,duration_manipulation_targetAtFixation,jsons/af.json,http://34.238.49.31/DepthDuration/v2_depth_duration_MTurk/v2_DepthDuration_HTML.html#17,17,1571,864,1920,1080,9-19-2021,8-12-58,46,depth_duration_stimuli/000736_2014-06-08_18-24-15_260595134347_rgbf000206-resize_3/000736_2014-06-08_18-24-15_260595134347_rgbf000206-resize_3-target.png,750,3.515,1.524,2359,761,feet,690249,782584,26,Woman
624,811430,DepthScenes,duration_manipulation_targetAtFixation,jsons/af.json,http://34.238.49.31/DepthDuration/v2_depth_duration_MTurk/v2_DepthDuration_HTML.html#17,17,1571,864,1920,1080,9-19-2021,8-12-58,49,depth_duration_stimuli/002153_2014-06-25_21-27-18_260595134347_rgbf000038-resize_5/002153_2014-06-25_21-27-18_260595134347_rgbf000038-resize_5-target.png,750,2.505,1.2192,2355,751,feet,690249,782584,26,Woman
629,811430,DepthScenes,duration_manipulation_targetAtFixation,jsons/af.json,http://34.238.49.31/DepthDuration/v2_depth_duration_MTurk/v2_DepthDuration_HTML.html#17,17,1571,864,1920,1080,9-19-2021,8-12-58,54,depth_duration_stimuli/000457_2014-06-08_16-52-43_260595134347_rgbf000199-resize_1/000457_2014-06-08_16-52-43_260595134347_rgbf000199-resize_1-target.png,750,3.649,1.8288000000000002,2427,749,feet,690249,782584,26,Woman
633,811430,DepthScenes,duration_manipulation_targetAtFixation,jsons/af.json,http://34.238.49.31/DepthDuration/v2_depth_duration_MTurk/v2_DepthDuration_HTML.html#17,17,1571,864,1920,1080,9-19-2021,8-12-58,58,depth_duration_stimuli/000692_2014-06-08_13-09-42_260595134347_rgbf000199-resize_2/000692_2014-06-08_13-09-42_260595134347_rgbf000199-resize_2-target.png,750,3.661,2.4384,4562,752,feet,690249,782584,26,Woman
636,811430,DepthScenes,duration_manipulation_targetAtFixation,jsons/af.json,http://34.238.49.31/DepthDuration/v2_depth_duration_MTurk/v2_DepthDuration_HTML.html#17,17,1571,864,1920,1080,9-19-2021,8-12-58,61,depth_duration_stimuli/002468_2014-06-28_20-38-39_260595134347_rgbf000045-resize_1/002468_2014-06-28_20-38-39_260595134347_rgbf000045-resize_1-target.png,750,1.956,1.524,3787,762,feet,690249,782584,26,Woman
637,811430,DepthScenes,duration_manipulation_targetAtFixation,jsons/af.json,http://34.238.49.31/DepthDuration/v2_depth_duration_MTurk/v2_DepthDuration_HTML.html#17,17,1571,864,1920,1080,9-19-2021,8-12-58,62,depth_duration_stimuli/001806_2014-06-26_20-50-20_260595134347_rgbf000091-resize_1/001806_2014-06-26_20-50-20_260595134347_rgbf000091-resize_1-target.png,750,2.7305,1.524,4780,750,feet,690249,782584,26,Woman
638,811430,DepthScenes,duration_manipulation_targetAtFixation,jsons/af.json,http://34.238.49.31/DepthDuration/v2_depth_duration_MTurk/v2_DepthDuration_HTML.html#17,17,1571,864,1920,1080,9-19-2021,8-12-58,63,depth_duration_stimuli/003492_2014-05-21_15-50-55_094959634447_rgbf000828-resize_1/003492_2014-05-21_15-50-55_094959634447_rgbf000828-resize_1-target.png,750,4.06875,2.4384,5255,750,feet,690249,782584,26,Woman
643,811430,DepthScenes,duration_manipulation_targetAtFixation,jsons/af.json,http://34.238.49.31/DepthDuration/v2_depth_duration_MTurk/v2_DepthDuration_HTML.html#17,17,1571,864,1920,1080,9-19-2021,8-12-58,68,depth_duration_stimuli/001571_2014-06-20_17-21-32_260595134347_rgbf000089-resize_1/001571_2014-06-20_17-21-32_260595134347_rgbf000089-resize_1-target.png,750,1.86,0.9144000000000001,2230,750,feet,690249,782584,26,Woman
648,811430,DepthScenes,duration_manipulation_targetAtFixation,jsons/af.json,http://34.238.49.31/DepthDuration/v2_depth_duration_MTurk/v2_DepthDuration_HTML.html#17,17,1571,864,1920,1080,9-19-2021,8-12-58,73,depth_duration_stimuli/002460_2014-06-28_20-35-43_260595134347_rgbf000028-resize_4/002460_2014-06-28_20-35-43_260595134347_rgbf000028-resize_4-target.png,750,2.269,0.9144000000000001,2592,750,feet,690249,782584,26,Woman
652,811430,DepthScenes,duration_manipulation_targetAtFixation,jsons/af.json,http://34.238.49.31/DepthDuration/v2_depth_duration_MTurk/v2_DepthDuration_HTML.html#17,17,1571,864,1920,1080,9-19-2021,8-12-58,77,depth_duration_stimuli/002039_2014-06-24_20-22-38_260595134347_rgbf000084-resize_1/002039_2014-06-24_20-22-38_260595134347_rgbf000084-resize_1-target.png,750,4.408,1.8288000000000002,3386,750,feet,690249,782584,26,Woman
658,811430,DepthScenes,duration_manipulation_targetAtFixation,jsons/af.json,http://34.238.49.31/DepthDuration/v2_depth_duration_MTurk/v2_DepthDuration_HTML.html#17,17,1571,864,1920,1080,9-19-2021,8-12-58,83,depth_duration_stimuli/002570_2014-06-24_13-59-54_094959634447_rgbf000059-resize_0/002570_2014-06-24_13-59-54_094959634447_rgbf000059-resize_0-target.png,750,4.037,1.2192,2228,740,feet,690249,782584,26,Woman
661,811430,DepthScenes,duration_manipulation_targetAtFixation,jsons/af.json,http://34.238.49.31/DepthDuration/v2_depth_duration_MTurk/v2_DepthDuration_HTML.html#17,17,1571,864,1920,1080,9-19-2021,8-12-58,86,depth_duration_stimuli/002995_2014-06-15_12-31-26_094959634447_rgbf000150-resize_1/002995_2014-06-15_12-31-26_094959634447_rgbf000150-resize_1-target.png,750,3.836,1.524,2777,750,feet,690249,782584,26,Woman
664,811430,DepthScenes,duration_manipulation_targetAtFixation,jsons/af.json,http://34.238.49.31/DepthDuration/v2_depth_duration_MTurk/v2_DepthDuration_HTML.html#17,17,1571,864,1920,1080,9-19-2021,8-12-58,89,depth_duration_stimuli/001516_2014-06-20_16-25-09_260595134347_rgbf000076-resize_2/001516_2014-06-20_16-25-09_260595134347_rgbf000076-resize_2-target.png,750,1.7445,0.9144000000000001,2364,757,feet,690249,782584,26,Woman
672,811430,DepthScenes,duration_manipulation_targetAtFixation,jsons/af.json,http://34.238.49.31/DepthDuration/v2_depth_duration_MTurk/v2_DepthDuration_HTML.html#17,17,1571,864,1920,1080,9-19-2021,8-12-58,97,depth_duration_stimuli/000493_2014-06-09_21-01-18_260595134347_rgbf000196-resize_3/000493_2014-06-09_21-01-18_260595134347_rgbf000196-resize_3-target.png,750,3.44,1.524,2659,748,feet,690249,782584,26,Woman
674,811430,DepthScenes,duration_manipulation_targetAtFixation,jsons/af.json,http://34.238.49.31/DepthDuration/v2_depth_duration_MTurk/v2_DepthDuration_HTML.html#17,17,1571,864,1920,1080,9-19-2021,8-12-58,99,depth_duration_stimuli/003129_2014-05-12_10-48-10_094959634447_rgbf000100-resize_0/003129_2014-05-12_10-48-10_094959634447_rgbf000100-resize_0-target.png,750,4.9305,2.1336,2520,753,feet,690249,782584,26,Woman
677,811430,DepthScenes,duration_manipulation_targetAtFixation,jsons/af.json,http://34.238.49.31/DepthDuration/v2_depth_duration_MTurk/v2_DepthDuration_HTML.html#17,17,1571,864,1920,1080,9-19-2021,8-12-58,102,depth_duration_stimuli/001617_2014-06-20_11-35-32_260595134347_rgbf000066-resize_1/001617_2014-06-20_11-35-32_260595134347_rgbf000066-resize_1-target.png,750,3.791,2.1336,3893,748,feet,690249,782584,26,Woman
684,811430,DepthScenes,duration_manipulation_targetAtFixation,jsons/af.json,http://34.238.49.31/DepthDuration/v2_depth_duration_MTurk/v2_DepthDuration_HTML.html#17,17,1571,864,1920,1080,9-19-2021,8-12-58,109,depth_duration_stimuli/003423_2014-05-21_10-23-26_094959634447_rgbf002665-resize_2/003423_2014-05-21_10-23-26_094959634447_rgbf002665-resize_2-target.png,750,3.2575,1.524,8622,754,feet,690249,782584,26,Woman
687,811430,DepthScenes,duration_manipulation_targetAtFixation,jsons/af.json,http://34.238.49.31/DepthDuration/v2_depth_duration_MTurk/v2_DepthDuration_HTML.html#17,17,1571,864,1920,1080,9-19-2021,8-12-58,112,depth_duration_stimuli/000810_2014-06-08_17-20-01_260595134347_rgbf000105-resize_0/000810_2014-06-08_17-20-01_260595134347_rgbf000105-resize_0-target.png,750,1.4865,0.9144000000000001,2542,761,feet,690249,782584,26,Woman
691,811430,DepthScenes,duration_manipulation_targetAtFixation,jsons/af.json,http://34.238.49.31/DepthDuration/v2_depth_duration_MTurk/v2_DepthDuration_HTML.html#17,17,1571,864,1920,1080,9-19-2021,8-12-58,116,depth_duration_stimuli/001244_2014-06-17_16-47-45_260595134347_rgbf000030-resize_4/001244_2014-06-17_16-47-45_260595134347_rgbf000030-resize_4-target.png,750,2.0425,0.9144000000000001,2283,750,feet,690249,782584,26,Woman
700,811430,DepthScenes,duration_manipulation_targetAtFixation,jsons/af.json,http://34.238.49.31/DepthDuration/v2_depth_duration_MTurk/v2_DepthDuration_HTML.html#17,17,1571,864,1920,1080,9-19-2021,8-12-58,125,depth_duration_stimuli/002763_2014-06-22_19-13-10_094959634447_rgbf000075-resize_4/002763_2014-06-22_19-13-10_094959634447_rgbf000075-resize_4-target.png,750,1.68375,0.9144000000000001,2248,753,feet,690249,782584,26,Woman
704,811430,DepthScenes,duration_manipulation_targetAtFixation,jsons/af.json,http://34.238.49.31/DepthDuration/v2_depth_duration_MTurk/v2_DepthDuration_HTML.html#17,17,1571,864,1920,1080,9-19-2021,8-12-58,129,depth_duration_stimuli/000103_2014-05-14_22-01-17_260595134347_rgbf000152-resize_5/000103_2014-05-14_22-01-17_260595134347_rgbf000152-resize_5-target.png,750,1.993,0.9144000000000001,2212,750,feet,690249,782584,26,Woman
709,811430,DepthScenes,duration_manipulation_targetAtFixation,jsons/af.json,http://34.238.49.31/DepthDuration/v2_depth_duration_MTurk/v2_DepthDuration_HTML.html#17,17,1571,864,1920,1080,9-19-2021,8-12-58,134,depth_duration_stimuli/001417_2014-06-19_16-25-36_260595134347_rgbf000115-resize_5/001417_2014-06-19_16-25-36_260595134347_rgbf000115-resize_5-target.png,750,4.6255,2.1336,3654,751,feet,690249,782584,26,Woman
711,811430,DepthScenes,duration_manipulation_targetAtFixation,jsons/af.json,http://34.238.49.31/DepthDuration/v2_depth_duration_MTurk/v2_DepthDuration_HTML.html#17,17,1571,864,1920,1080,9-19-2021,8-12-58,136,depth_duration_stimuli/001092_2014-06-15_17-34-58_260595134347_rgbf000171-resize_3/001092_2014-06-15_17-34-58_260595134347_rgbf000171-resize_3-target.png,750,2.6935,1.2192,2588,749,feet,690249,782584,26,Woman
713,811430,DepthScenes,duration_manipulation_targetAtFixation,jsons/af.json,http://34.238.49.31/DepthDuration/v2_depth_duration_MTurk/v2_DepthDuration_HTML.html#17,17,1571,864,1920,1080,9-19-2021,8-12-58,138,depth_duration_stimuli/001066_2014-06-08_22-03-20_260595134347_rgbf000066-resize_4/001066_2014-06-08_22-03-20_260595134347_rgbf000066-resize_4-target.png,750,4.233,2.1336,3409,756,feet,690249,782584,26,Woman
715,811430,DepthScenes,duration_manipulation_targetAtFixation,jsons/af.json,http://34.238.49.31/DepthDuration/v2_depth_duration_MTurk/v2_DepthDuration_HTML.html#17,17,1571,864,1920,1080,9-19-2021,8-12-58,140,depth_duration_stimuli/000869_2014-06-09_20-50-18_260595134347_rgbf000060-resize_3/000869_2014-06-09_20-50-18_260595134347_rgbf000060-resize_3-target.png,750,2.266,0.9144000000000001,2290,750,feet,690249,782584,26,Woman
720,811430,DepthScenes,duration_manipulation_targetAtFixation,jsons/af.json,http://34.238.49.31/DepthDuration/v2_depth_duration_MTurk/v2_DepthDuration_HTML.html#17,17,1571,864,1920,1080,9-19-2021,8-12-58,145,depth_duration_stimuli/001199_2014-06-17_16-03-48_260595134347_rgbf000077-resize_0/001199_2014-06-17_16-03-48_260595134347_rgbf000077-resize_0-target.png,750,3.4375,2.1336,2385,750,feet,690249,782584,26,Woman
722,811430,DepthScenes,duration_manipulation_targetAtFixation,jsons/af.json,http://34.238.49.31/DepthDuration/v2_depth_duration_MTurk/v2_DepthDuration_HTML.html#17,17,1571,864,1920,1080,9-19-2021,8-12-58,147,depth_duration_stimuli/000642_2014-06-08_16-59-25_260595134347_rgbf000098-resize_2/000642_2014-06-08_16-59-25_260595134347_rgbf000098-resize_2-target.png,750,2.8815,0.9144000000000001,3333,760,feet,690249,782584,26,Woman
726,811430,DepthScenes,duration_manipulation_targetAtFixation,jsons/af.json,http://34.238.49.31/DepthDuration/v2_depth_duration_MTurk/v2_DepthDuration_HTML.html#17,17,1571,864,1920,1080,9-19-2021,8-12-58,151,depth_duration_stimuli/002509_2014-06-24_13-19-22_094959634447_rgbf000077-resize_0/002509_2014-06-24_13-19-22_094959634447_rgbf000077-resize_0-target.png,750,1.3065,0.6096,2412,756,feet,690249,782584,26,Woman
727,811430,DepthScenes,duration_manipulation_targetAtFixation,jsons/af.json,http://34.238.49.31/DepthDuration/v2_depth_duration_MTurk/v2_DepthDuration_HTML.html#17,17,1571,864,1920,1080,9-19-2021,8-12-58,152,depth_duration_stimuli/002964_2014-06-08_17-46-11_094959634447_rgbf000091-resize_4/002964_2014-06-08_17-46-11_094959634447_rgbf000091-resize_4-target.png,750,1.691,0.6096,2278,750,feet,690249,782584,26,Woman
731,811430,DepthScenes,duration_manipulation_targetAtFixation,jsons/af.json,http://34.238.49.31/DepthDuration/v2_depth_duration_MTurk/v2_DepthDuration_HTML.html#17,17,1571,864,1920,1080,9-19-2021,8-12-58,156,depth_duration_stimuli/002467_2014-06-28_20-38-07_260595134347_rgbf000026-resize_2/002467_2014-06-28_20-38-07_260595134347_rgbf000026-resize_2-target.png,750,4.742,2.4384,4325,751,feet,690249,782584,26,Woman
732,811430,DepthScenes,duration_manipulation_targetAtFixation,jsons/af.json,http://34.238.49.31/DepthDuration/v2_depth_duration_MTurk/v2_DepthDuration_HTML.html#17,17,1571,864,1920,1080,9-19-2021,8-12-58,157,depth_duration_stimuli/002725_2014-06-22_11-47-51_094959634447_rgbf000070-resize_1/002725_2014-06-22_11-47-51_094959634447_rgbf000070-resize_1-target.png,750,2.195,1.524,5760,748,feet,690249,782584,26,Woman
740,811430,DepthScenes,duration_manipulation_targetAtFixation,jsons/af.json,http://34.238.49.31/DepthDuration/v2_depth_duration_MTurk/v2_DepthDuration_HTML.html#17,17,1571,864,1920,1080,9-19-2021,8-12-58,165,depth_duration_stimuli/002700_2014-06-22_11-27-02_094959634447_rgbf000124-resize_3/002700_2014-06-22_11-27-02_094959634447_rgbf000124-resize_3-target.png,750,3.301,1.524,2603,746,feet,690249,782584,26,Woman
748,811430,DepthScenes,duration_manipulation_targetAtFixation,jsons/af.json,http://34.238.49.31/DepthDuration/v2_depth_duration_MTurk/v2_DepthDuration_HTML.html#17,17,1571,864,1920,1080,9-19-2021,8-12-58,173,depth_duration_stimuli/000929_2014-06-09_16-33-19_260595134347_rgbf000139-resize_0/000929_2014-06-09_16-33-19_260595134347_rgbf000139-resize_0-target.png,750,2.868,1.2192,2196,749,feet,690249,782584,26,Woman
753,811430,DepthScenes,duration_manipulation_targetAtFixation,jsons/af.json,http://34.238.49.31/DepthDuration/v2_depth_duration_MTurk/v2_DepthDuration_HTML.html#17,17,1571,864,1920,1080,9-19-2021,8-12-58,178,depth_duration_stimuli/001289_2014-06-16_16-25-52_260595134347_rgbf000067-resize_1/001289_2014-06-16_16-25-52_260595134347_rgbf000067-resize_1-target.png,750,1.8835,0.9144000000000001,2451,750,feet,690249,782584,26,Woman
757,811430,DepthScenes,duration_manipulation_targetAtFixation,jsons/af.json,http://34.238.49.31/DepthDuration/v2_depth_duration_MTurk/v2_DepthDuration_HTML.html#17,17,1571,864,1920,1080,9-19-2021,8-12-58,182,depth_duration_stimuli/000486_2014-06-09_20-47-20_260595134347_rgbf000143-resize_2/000486_2014-06-09_20-47-20_260595134347_rgbf000143-resize_2-target.png,750,4.8325,1.524,2625,750,feet,690249,782584,26,Woman
759,811430,DepthScenes,duration_manipulation_targetAtFixation,jsons/af.json,http://34.238.49.31/DepthDuration/v2_depth_duration_MTurk/v2_DepthDuration_HTML.html#17,17,1571,864,1920,1080,9-19-2021,8-12-58,184,depth_duration_stimuli/000735_2014-06-08_18-23-50_260595134347_rgbf000163-resize_2/000735_2014-06-08_18-23-50_260595134347_rgbf000163-resize_2-target.png,750,4.1695,2.1336,2981,750,feet,690249,782584,26,Woman
766,811430,DepthScenes,duration_manipulation_targetAtFixation,jsons/af.json,http://34.238.49.31/DepthDuration/v2_depth_duration_MTurk/v2_DepthDuration_HTML.html#17,17,1571,864,1920,1080,9-19-2021,8-12-58,191,depth_duration_stimuli/000665_2014-06-09_20-42-35_260595134347_rgbf000110-resize_1/000665_2014-06-09_20-42-35_260595134347_rgbf000110-resize_1-target.png,750,3.057,1.524,2144,753,feet,690249,782584,26,Woman
769,614349,DepthScenes,duration_manipulation_targetAtFixation,jsons/ah_2.json,http://35.173.220.167/DepthDuration/v2_depth_duration_MTurk/v2_DepthDuration_HTML.html#30,30,1440,757,1440,900,9-5-2021,5-56-48,2,depth_duration_stimuli/001016_2014-06-09_16-16-10_260595134347_rgbf000112-resize_5/001016_2014-06-09_16-16-10_260595134347_rgbf000112-resize_5-target.png,750,1.6565,1.524,3180,739,feet,1021300,1244325,55,Man
770,614349,DepthScenes,duration_manipulation_targetAtFixation,jsons/ah_2.json,http://35.173.220.167/DepthDuration/v2_depth_duration_MTurk/v2_DepthDuration_HTML.html#30,30,1440,757,1440,900,9-5-2021,5-56-48,3,depth_duration_stimuli/001450_2014-06-19_17-02-03_260595134347_rgbf000203-resize_4/001450_2014-06-19_17-02-03_260595134347_rgbf000203-resize_4-target.png,750,4.0106666666667,3.048,3186,736,feet,1021300,1244325,55,Man
771,614349,DepthScenes,duration_manipulation_targetAtFixation,jsons/ah_2.json,http://35.173.220.167/DepthDuration/v2_depth_duration_MTurk/v2_DepthDuration_HTML.html#30,30,1440,757,1440,900,9-5-2021,5-56-48,4,depth_duration_stimuli/001181_2014-06-17_15-50-57_260595134347_rgbf000106-resize_4/001181_2014-06-17_15-50-57_260595134347_rgbf000106-resize_4-target.png,750,4.149,2.4384,3426,760,feet,1021300,1244325,55,Man
789,614349,DepthScenes,duration_manipulation_targetAtFixation,jsons/ah_2.json,http://35.173.220.167/DepthDuration/v2_depth_duration_MTurk/v2_DepthDuration_HTML.html#30,30,1440,757,1440,900,9-5-2021,5-56-48,22,depth_duration_stimuli/000137_2014-05-20_17-04-49_260595134347_rgbf000120-resize_1/000137_2014-05-20_17-04-49_260595134347_rgbf000120-resize_1-target.png,750,3.786,4.8768,6004,750,feet,1021300,1244325,55,Man
793,614349,DepthScenes,duration_manipulation_targetAtFixation,jsons/ah_2.json,http://35.173.220.167/DepthDuration/v2_depth_duration_MTurk/v2_DepthDuration_HTML.html#30,30,1440,757,1440,900,9-5-2021,5-56-48,26,depth_duration_stimuli/000483_2014-06-09_20-41-45_260595134347_rgbf000116-resize_4/000483_2014-06-09_20-41-45_260595134347_rgbf000116-resize_4-target.png,750,1.337,0.9144000000000001,3147,752,feet,1021300,1244325,55,Man
797,614349,DepthScenes,duration_manipulation_targetAtFixation,jsons/ah_2.json,http://35.173.220.167/DepthDuration/v2_depth_duration_MTurk/v2_DepthDuration_HTML.html#30,30,1440,757,1440,900,9-5-2021,5-56-48,30,depth_duration_stimuli/000780_2014-06-08_22-28-29_260595134347_rgbf000126-resize_1/000780_2014-06-08_22-28-29_260595134347_rgbf000126-resize_1-target.png,750,3.3825,2.4384,4658,740,feet,1021300,1244325,55,Man
799,614349,DepthScenes,duration_manipulation_targetAtFixation,jsons/ah_2.json,http://35.173.220.167/DepthDuration/v2_depth_duration_MTurk/v2_DepthDuration_HTML.html#30,30,1440,757,1440,900,9-5-2021,5-56-48,32,depth_duration_stimuli/002444_2014-06-28_20-32-08_260595134347_rgbf000027-resize_0/002444_2014-06-28_20-32-08_260595134347_rgbf000027-resize_0-target.png,750,4.389,3.9624,4038,742,feet,1021300,1244325,55,Man
806,614349,DepthScenes,duration_manipulation_targetAtFixation,jsons/ah_2.json,http://35.173.220.167/DepthDuration/v2_depth_duration_MTurk/v2_DepthDuration_HTML.html#30,30,1440,757,1440,900,9-5-2021,5-56-48,39,depth_duration_stimuli/000549_2014-06-08_22-10-24_260595134347_rgbf000247-resize_3/000549_2014-06-08_22-10-24_260595134347_rgbf000247-resize_3-target.png,750,1.841,0.9144000000000001,6035,604,feet,1021300,1244325,55,Man
809,614349,DepthScenes,duration_manipulation_targetAtFixation,jsons/ah_2.json,http://35.173.220.167/DepthDuration/v2_depth_duration_MTurk/v2_DepthDuration_HTML.html#30,30,1440,757,1440,900,9-5-2021,5-56-48,42,depth_duration_stimuli/001056_2014-06-08_18-46-44_260595134347_rgbf000068-resize_0/001056_2014-06-08_18-46-44_260595134347_rgbf000068-resize_0-target.png,750,2.6625,1.8288000000000002,4405,756,feet,1021300,1244325,55,Man
811,614349,DepthScenes,duration_manipulation_targetAtFixation,jsons/ah_2.json,http://35.173.220.167/DepthDuration/v2_depth_duration_MTurk/v2_DepthDuration_HTML.html#30,30,1440,757,1440,900,9-5-2021,5-56-48,44,depth_duration_stimuli/000830_2014-06-04_19-49-31_260595134347_rgbf000096-resize_2/000830_2014-06-04_19-49-31_260595134347_rgbf000096-resize_2-target.png,750,2.6353333333333,2.1336,5104,754,feet,1021300,1244325,55,Man
814,614349,DepthScenes,duration_manipulation_targetAtFixation,jsons/ah_2.json,http://35.173.220.167/DepthDuration/v2_depth_duration_MTurk/v2_DepthDuration_HTML.html#30,30,1440,757,1440,900,9-5-2021,5-56-48,47,depth_duration_stimuli/002660_2014-06-13_15-44-18_094959634447_rgbf001878-resize_2/002660_2014-06-13_15-44-18_094959634447_rgbf001878-resize_2-target.png,750,3.576,3.048,6778,744,feet,1021300,1244325,55,Man
815,614349,DepthScenes,duration_manipulation_targetAtFixation,jsons/ah_2.json,http://35.173.220.167/DepthDuration/v2_depth_duration_MTurk/v2_DepthDuration_HTML.html#30,30,1440,757,1440,900,9-5-2021,5-56-48,48,depth_duration_stimuli/000869_2014-06-09_20-50-18_260595134347_rgbf000060-resize_3/000869_2014-06-09_20-50-18_260595134347_rgbf000060-resize_3-target.png,750,2.266,3.048,9079,748,feet,1021300,1244325,55,Man
816,614349,DepthScenes,duration_manipulation_targetAtFixation,jsons/ah_2.json,http://35.173.220.167/DepthDuration/v2_depth_duration_MTurk/v2_DepthDuration_HTML.html#30,30,1440,757,1440,900,9-5-2021,5-56-48,49,depth_duration_stimuli/000740_2014-06-08_18-46-23_260595134347_rgbf000049-resize_6/000740_2014-06-08_18-46-23_260595134347_rgbf000049-resize_6-target.png,750,1.687,1.524,5338,751,feet,1021300,1244325,55,Man
822,614349,DepthScenes,duration_manipulation_targetAtFixation,jsons/ah_2.json,http://35.173.220.167/DepthDuration/v2_depth_duration_MTurk/v2_DepthDuration_HTML.html#30,30,1440,757,1440,900,9-5-2021,5-56-48,55,depth_duration_stimuli/003010_2014-06-15_12-54-35_094959634447_rgbf000112-resize_0/003010_2014-06-15_12-54-35_094959634447_rgbf000112-resize_0-target.png,750,3.1185,4.2672,6169,741,feet,1021300,1244325,55,Man
827,614349,DepthScenes,duration_manipulation_targetAtFixation,jsons/ah_2.json,http://35.173.220.167/DepthDuration/v2_depth_duration_MTurk/v2_DepthDuration_HTML.html#30,30,1440,757,1440,900,9-5-2021,5-56-48,60,depth_duration_stimuli/000734_2014-06-08_17-39-11_260595134347_rgbf000128-resize_2/000734_2014-06-08_17-39-11_260595134347_rgbf000128-resize_2-target.png,750,4.098,3.048,3858,756,feet,1021300,1244325,55,Man
833,614349,DepthScenes,duration_manipulation_targetAtFixation,jsons/ah_2.json,http://35.173.220.167/DepthDuration/v2_depth_duration_MTurk/v2_DepthDuration_HTML.html#30,30,1440,757,1440,900,9-5-2021,5-56-48,66,depth_duration_stimuli/000635_2014-06-08_16-38-42_260595134347_rgbf000106-resize_1/000635_2014-06-08_16-38-42_260595134347_rgbf000106-resize_1-target.png,750,2.074,2.4384,3908,743,feet,1021300,1244325,55,Man
834,614349,DepthScenes,duration_manipulation_targetAtFixation,jsons/ah_2.json,http://35.173.220.167/DepthDuration/v2_depth_duration_MTurk/v2_DepthDuration_HTML.html#30,30,1440,757,1440,900,9-5-2021,5-56-48,67,depth_duration_stimuli/000555_2014-06-09_22-42-23_260595134347_rgbf000037-resize_4/000555_2014-06-09_22-42-23_260595134347_rgbf000037-resize_4-target.png,750,1.9765,2.4384,3544,755,feet,1021300,1244325,55,Man
835,614349,DepthScenes,duration_manipulation_targetAtFixation,jsons/ah_2.json,http://35.173.220.167/DepthDuration/v2_depth_duration_MTurk/v2_DepthDuration_HTML.html#30,30,1440,757,1440,900,9-5-2021,5-56-48,68,depth_duration_stimuli/000739_2014-06-08_18-45-58_260595134347_rgbf000068-resize_1/000739_2014-06-08_18-45-58_260595134347_rgbf000068-resize_1-target.png,750,3.534,3.048,6382,756,feet,1021300,1244325,55,Man
837,614349,DepthScenes,duration_manipulation_targetAtFixation,jsons/ah_2.json,http://35.173.220.167/DepthDuration/v2_depth_duration_MTurk/v2_DepthDuration_HTML.html#30,30,1440,757,1440,900,9-5-2021,5-56-48,70,depth_duration_stimuli/001055_2014-06-08_18-45-35_260595134347_rgbf000111-resize_4/001055_2014-06-08_18-45-35_260595134347_rgbf000111-resize_4-target.png,750,2.429,3.048,6214,746,feet,1021300,1244325,55,Man
843,614349,DepthScenes,duration_manipulation_targetAtFixation,jsons/ah_2.json,http://35.173.220.167/DepthDuration/v2_depth_duration_MTurk/v2_DepthDuration_HTML.html#30,30,1440,757,1440,900,9-5-2021,5-56-48,76,depth_duration_stimuli/002467_2014-06-28_20-38-07_260595134347_rgbf000026-resize_2/002467_2014-06-28_20-38-07_260595134347_rgbf000026-resize_2-target.png,750,4.742,6.096,3716,749,feet,1021300,1244325,55,Man
844,614349,DepthScenes,duration_manipulation_targetAtFixation,jsons/ah_2.json,http://35.173.220.167/DepthDuration/v2_depth_duration_MTurk/v2_DepthDuration_HTML.html#30,30,1440,757,1440,900,9-5-2021,5-56-48,77,depth_duration_stimuli/001188_2014-06-17_15-54-10_260595134347_rgbf000090-resize_2/001188_2014-06-17_15-54-10_260595134347_rgbf000090-resize_2-target.png,750,2.744,4.572,3970,715,feet,1021300,1244325,55,Man
850,614349,DepthScenes,duration_manipulation_targetAtFixation,jsons/ah_2.json,http://35.173.220.167/DepthDuration/v2_depth_duration_MTurk/v2_DepthDuration_HTML.html#30,30,1440,757,1440,900,9-5-2021,5-56-48,83,depth_duration_stimuli/003081_2014-06-15_15-19-16_094959634447_rgbf000150-resize_1/003081_2014-06-15_15-19-16_094959634447_rgbf000150-resize_1-target.png,750,3.9125,4.8768,6495,739,feet,1021300,1244325,55,Man
857,614349,DepthScenes,duration_manipulation_targetAtFixation,jsons/ah_2.json,http://35.173.220.167/DepthDuration/v2_depth_duration_MTurk/v2_DepthDuration_HTML.html#30,30,1440,757,1440,900,9-5-2021,5-56-48,90,depth_duration_stimuli/002199_2014-06-28_18-33-56_260595134347_rgbf000074-resize_0/002199_2014-06-28_18-33-56_260595134347_rgbf000074-resize_0-target.png,750,1.996,0.9144000000000001,3566,747,feet,1021300,1244325,55,Man
861,614349,DepthScenes,duration_manipulation_targetAtFixation,jsons/ah_2.json,http://35.173.220.167/DepthDuration/v2_depth_duration_MTurk/v2_DepthDuration_HTML.html#30,30,1440,757,1440,900,9-5-2021,5-56-48,94,depth_duration_stimuli/003129_2014-05-12_10-48-10_094959634447_rgbf000100-resize_0/003129_2014-05-12_10-48-10_094959634447_rgbf000100-resize_0-target.png,750,4.9305,4.572,4102,742,feet,1021300,1244325,55,Man
864,614349,DepthScenes,duration_manipulation_targetAtFixation,jsons/ah_2.json,http://35.173.220.167/DepthDuration/v2_depth_duration_MTurk/v2_DepthDuration_HTML.html#30,30,1440,757,1440,900,9-5-2021,5-56-48,97,depth_duration_stimuli/001724_2014-06-26_19-28-50_260595134347_rgbf000037-resize_7/001724_2014-06-26_19-28-50_260595134347_rgbf000037-resize_7-target.png,750,3.827,4.8768,4778,755,feet,1021300,1244325,55,Man
872,614349,DepthScenes,duration_manipulation_targetAtFixation,jsons/ah_2.json,http://35.173.220.167/DepthDuration/v2_depth_duration_MTurk/v2_DepthDuration_HTML.html#30,30,1440,757,1440,900,9-5-2021,5-56-48,105,depth_duration_stimuli/001150_2014-06-17_15-27-34_260595134347_rgbf000108-resize_2/001150_2014-06-17_15-27-34_260595134347_rgbf000108-resize_2-target.png,750,4.0325,4.572,4287,753,feet,1021300,1244325,55,Man
881,614349,DepthScenes,duration_manipulation_targetAtFixation,jsons/ah_2.json,http://35.173.220.167/DepthDuration/v2_depth_duration_MTurk/v2_DepthDuration_HTML.html#30,30,1440,757,1440,900,9-5-2021,5-56-48,114,depth_duration_stimuli/001392_2014-06-19_16-07-59_260595134347_rgbf000046-resize_1/001392_2014-06-19_16-07-59_260595134347_rgbf000046-resize_1-target.png,750,4.135,4.8768,5065,746,feet,1021300,1244325,55,Man
885,614349,DepthScenes,duration_manipulation_targetAtFixation,jsons/ah_2.json,http://35.173.220.167/DepthDuration/v2_depth_duration_MTurk/v2_DepthDuration_HTML.html#30,30,1440,757,1440,900,9-5-2021,5-56-48,118,depth_duration_stimuli/001092_2014-06-15_17-34-58_260595134347_rgbf000171-resize_3/001092_2014-06-15_17-34-58_260595134347_rgbf000171-resize_3-target.png,750,2.6935,2.1336,5519,739,feet,1021300,1244325,55,Man
890,614349,DepthScenes,duration_manipulation_targetAtFixation,jsons/ah_2.json,http://35.173.220.167/DepthDuration/v2_depth_duration_MTurk/v2_DepthDuration_HTML.html#30,30,1440,757,1440,900,9-5-2021,5-56-48,123,depth_duration_stimuli/003534_2014-05-22_15-06-10_094959634447_rgbf000102-resize_4/003534_2014-05-22_15-06-10_094959634447_rgbf000102-resize_4-target.png,750,1.426,1.524,4196,744,feet,1021300,1244325,55,Man
892,614349,DepthScenes,duration_manipulation_targetAtFixation,jsons/ah_2.json,http://35.173.220.167/DepthDuration/v2_depth_duration_MTurk/v2_DepthDuration_HTML.html#30,30,1440,757,1440,900,9-5-2021,5-56-48,125,depth_duration_stimuli/000906_2014-06-08_13-35-43_260595134347_rgbf000155-resize_1/000906_2014-06-08_13-35-43_260595134347_rgbf000155-resize_1-target.png,750,2.849,3.048,7430,746,feet,1021300,1244325,55,Man
894,614349,DepthScenes,duration_manipulation_targetAtFixation,jsons/ah_2.json,http://35.173.220.167/DepthDuration/v2_depth_duration_MTurk/v2_DepthDuration_HTML.html#30,30,1440,757,1440,900,9-5-2021,5-56-48,127,depth_duration_stimuli/000414_2014-06-04_19-49-13_260595134347_rgbf000044-resize_0/000414_2014-06-04_19-49-13_260595134347_rgbf000044-resize_0-target.png,750,4.329,4.572,7549,755,feet,1021300,1244325,55,Man
899,614349,DepthScenes,duration_manipulation_targetAtFixation,jsons/ah_2.json,http://35.173.220.167/DepthDuration/v2_depth_duration_MTurk/v2_DepthDuration_HTML.html#30,30,1440,757,1440,900,9-5-2021,5-56-48,132,depth_duration_stimuli/001235_2014-06-17_16-37-36_260595134347_rgbf000084-resize_4/001235_2014-06-17_16-37-36_260595134347_rgbf000084-resize_4-target.png,750,3.6605,6.096,4097,731,feet,1021300,1244325,55,Man
900,614349,DepthScenes,duration_manipulation_targetAtFixation,jsons/ah_2.json,http://35.173.220.167/DepthDuration/v2_depth_duration_MTurk/v2_DepthDuration_HTML.html#30,30,1440,757,1440,900,9-5-2021,5-56-48,133,depth_duration_stimuli/001650_2014-06-20_12-09-00_260595134347_rgbf000087-resize_3/001650_2014-06-20_12-09-00_260595134347_rgbf000087-resize_3-target.png,750,1.9505,0.6096,4552,744,feet,1021300,1244325,55,Man
901,614349,DepthScenes,duration_manipulation_targetAtFixation,jsons/ah_2.json,http://35.173.220.167/DepthDuration/v2_depth_duration_MTurk/v2_DepthDuration_HTML.html#30,30,1440,757,1440,900,9-5-2021,5-56-48,134,depth_duration_stimuli/001516_2014-06-20_16-25-09_260595134347_rgbf000076-resize_2/001516_2014-06-20_16-25-09_260595134347_rgbf000076-resize_2-target.png,750,1.7445,1.524,4581,753,feet,1021300,1244325,55,Man
903,614349,DepthScenes,duration_manipulation_targetAtFixation,jsons/ah_2.json,http://35.173.220.167/DepthDuration/v2_depth_duration_MTurk/v2_DepthDuration_HTML.html#30,30,1440,757,1440,900,9-5-2021,5-56-48,136,depth_duration_stimuli/000878_2014-06-08_22-52-45_260595134347_rgbf000045-resize_2/000878_2014-06-08_22-52-45_260595134347_rgbf000045-resize_2-target.png,750,2.092,2.4384,3312,747,feet,1021300,1244325,55,Man
911,614349,DepthScenes,duration_manipulation_targetAtFixation,jsons/ah_2.json,http://35.173.220.167/DepthDuration/v2_depth_duration_MTurk/v2_DepthDuration_HTML.html#30,30,1440,757,1440,900,9-5-2021,5-56-48,144,depth_duration_stimuli/001032_2014-06-08_13-23-17_260595134347_rgbf000021-resize_3/001032_2014-06-08_13-23-17_260595134347_rgbf000021-resize_3-target.png,750,3.2725,3.6576000000000004,4158,838,feet,1021300,1244325,55,Man
915,614349,DepthScenes,duration_manipulation_targetAtFixation,jsons/ah_2.json,http://35.173.220.167/DepthDuration/v2_depth_duration_MTurk/v2_DepthDuration_HTML.html#30,30,1440,757,1440,900,9-5-2021,5-56-48,148,depth_duration_stimuli/002153_2014-06-25_21-27-18_260595134347_rgbf000038-resize_5/002153_2014-06-25_21-27-18_260595134347_rgbf000038-resize_5-target.png,750,2.505,2.1336,7322,778,feet,1021300,1244325,55,Man
920,614349,DepthScenes,duration_manipulation_targetAtFixation,jsons/ah_2.json,http://35.173.220.167/DepthDuration/v2_depth_duration_MTurk/v2_DepthDuration_HTML.html#30,30,1440,757,1440,900,9-5-2021,5-56-48,153,depth_duration_stimuli/001289_2014-06-16_16-25-52_260595134347_rgbf000067-resize_1/001289_2014-06-16_16-25-52_260595134347_rgbf000067-resize_1-target.png,750,1.8835,2.4384,4785,742,feet,1021300,1244325,55,Man
921,614349,DepthScenes,duration_manipulation_targetAtFixation,jsons/ah_2.json,http://35.173.220.167/DepthDuration/v2_depth_duration_MTurk/v2_DepthDuration_HTML.html#30,30,1440,757,1440,900,9-5-2021,5-56-48,154,depth_duration_stimuli/003292_2014-05-14_21-53-49_094959634447_rgbf000100-resize_2/003292_2014-05-14_21-53-49_094959634447_rgbf000100-resize_2-target.png,750,3.4815,3.6576000000000004,3976,761,feet,1021300,1244325,55,Man
928,614349,DepthScenes,duration_manipulation_targetAtFixation,jsons/ah_2.json,http://35.173.220.167/DepthDuration/v2_depth_duration_MTurk/v2_DepthDuration_HTML.html#30,30,1440,757,1440,900,9-5-2021,5-56-48,161,depth_duration_stimuli/002460_2014-06-28_20-35-43_260595134347_rgbf000028-resize_4/002460_2014-06-28_20-35-43_260595134347_rgbf000028-resize_4-target.png,750,2.269,2.4384,4386,752,feet,1021300,1244325,55,Man
931,614349,DepthScenes,duration_manipulation_targetAtFixation,jsons/ah_2.json,http://35.173.220.167/DepthDuration/v2_depth_duration_MTurk/v2_DepthDuration_HTML.html#30,30,1440,757,1440,900,9-5-2021,5-56-48,164,depth_duration_stimuli/000521_2014-06-08_13-34-35_260595134347_rgbf000191-resize_2/000521_2014-06-08_13-34-35_260595134347_rgbf000191-resize_2-target.png,750,3.0385,2.4384,5986,753,feet,1021300,1244325,55,Man
933,614349,DepthScenes,duration_manipulation_targetAtFixation,jsons/ah_2.json,http://35.173.220.167/DepthDuration/v2_depth_duration_MTurk/v2_DepthDuration_HTML.html#30,30,1440,757,1440,900,9-5-2021,5-56-48,166,depth_duration_stimuli/000642_2014-06-08_16-59-25_260595134347_rgbf000098-resize_2/000642_2014-06-08_16-59-25_260595134347_rgbf000098-resize_2-target.png,750,2.8815,4.572,9387,755,feet,1021300,1244325,55,Man
938,614349,DepthScenes,duration_manipulation_targetAtFixation,jsons/ah_2.json,http://35.173.220.167/DepthDuration/v2_depth_duration_MTurk/v2_DepthDuration_HTML.html#30,30,1440,757,1440,900,9-5-2021,5-56-48,171,depth_duration_stimuli/003495_2014-05-21_16-01-51_094959634447_rgbf000100-resize_3/003495_2014-05-21_16-01-51_094959634447_rgbf000100-resize_3-target.png,750,1.6255,1.524,3199,754,feet,1021300,1244325,55,Man
946,614349,DepthScenes,duration_manipulation_targetAtFixation,jsons/ah_2.json,http://35.173.220.167/DepthDuration/v2_depth_duration_MTurk/v2_DepthDuration_HTML.html#30,30,1440,757,1440,900,9-5-2021,5-56-48,179,depth_duration_stimuli/000505_2014-06-08_23-03-23_260595134347_rgbf000091-resize_0/000505_2014-06-08_23-03-23_260595134347_rgbf000091-resize_0-target.png,750,3.3105,1.2192,3836,592,feet,1021300,1244325,55,Man
947,614349,DepthScenes,duration_manipulation_targetAtFixation,jsons/ah_2.json,http://35.173.220.167/DepthDuration/v2_depth_duration_MTurk/v2_DepthDuration_HTML.html#30,30,1440,757,1440,900,9-5-2021,5-56-48,180,depth_duration_stimuli/000556_2014-06-09_22-42-56_260595134347_rgbf000214-resize_1/000556_2014-06-09_22-42-56_260595134347_rgbf000214-resize_1-target.png,750,4.8415,3.6576000000000004,5043,743,feet,1021300,1244325,55,Man
956,614349,DepthScenes,duration_manipulation_targetAtFixation,jsons/ah_2.json,http://35.173.220.167/DepthDuration/v2_depth_duration_MTurk/v2_DepthDuration_HTML.html#30,30,1440,757,1440,900,9-5-2021,5-56-48,189,depth_duration_stimuli/002279_2014-06-28_18-55-32_260595134347_rgbf000040-resize_5/002279_2014-06-28_18-55-32_260595134347_rgbf000040-resize_5-target.png,750,1.5043333333333,2.4384,4327,757,feet,1021300,1244325,55,Man
957,614349,DepthScenes,duration_manipulation_targetAtFixation,jsons/ah_2.json,http://35.173.220.167/DepthDuration/v2_depth_duration_MTurk/v2_DepthDuration_HTML.html#30,30,1440,757,1440,900,9-5-2021,5-56-48,190,depth_duration_stimuli/001094_2014-06-15_17-36-00_260595134347_rgbf000205-resize_0/001094_2014-06-15_17-36-00_260595134347_rgbf000205-resize_0-target.png,750,4.2175,4.2672,4085,802,feet,1021300,1244325,55,Man
